subj,trial,block,sex,age,date,stim,stim_order,param_index,filter_freq,filter_gain,response,rt
100,0,0,coucou,11,2021-11-29T14:04:23.250Z,gomot_a.0094.eq.wav,0,0,0.00000000,-1.42808655,True,222
100,0,0,coucou,11,2021-11-29T14:04:23.250Z,gomot_a.0094.eq.wav,0,1,104.58767290,-2.60130476,True,222
100,0,0,coucou,11,2021-11-29T14:04:23.250Z,gomot_a.0094.eq.wav,0,2,224.80189054,4.10426027,True,222
100,0,0,coucou,11,2021-11-29T14:04:23.250Z,gomot_a.0094.eq.wav,0,3,362.97743001,4.17089311,True,222
100,0,0,coucou,11,2021-11-29T14:04:23.250Z,gomot_a.0094.eq.wav,0,4,521.79790965,-2.02244457,True,222
100,0,0,coucou,11,2021-11-29T14:04:23.250Z,gomot_a.0094.eq.wav,0,5,704.34790983,-0.66373635,True,222
100,0,0,coucou,11,2021-11-29T14:04:23.250Z,gomot_a.0094.eq.wav,0,6,914.17288101,2.68428112,True,222
100,0,0,coucou,11,2021-11-29T14:04:23.250Z,gomot_a.0094.eq.wav,0,7,1155.34800284,0.22062072,True,222
100,0,0,coucou,11,2021-11-29T14:04:23.250Z,gomot_a.0094.eq.wav,0,8,1432.55733147,1.90632154,True,222
100,0,0,coucou,11,2021-11-29T14:04:23.250Z,gomot_a.0094.eq.wav,0,9,1751.18477235,1.14653866,True,222
100,0,0,coucou,11,2021-11-29T14:04:23.250Z,gomot_a.0094.eq.wav,0,10,2117.41864548,-2.98902005,True,222
100,0,0,coucou,11,2021-11-29T14:04:23.250Z,gomot_a.0094.eq.wav,0,11,2538.37187364,-2.02442750,True,222
100,0,0,coucou,11,2021-11-29T14:04:23.250Z,gomot_a.0094.eq.wav,0,12,3022.22012828,2.94384385,True,222
100,0,0,coucou,11,2021-11-29T14:04:23.250Z,gomot_a.0094.eq.wav,0,13,3578.36061576,-0.82449455,True,222
100,0,0,coucou,11,2021-11-29T14:04:23.250Z,gomot_a.0094.eq.wav,0,14,4217.59458808,3.02096575,True,222
100,0,0,coucou,11,2021-11-29T14:04:23.250Z,gomot_a.0094.eq.wav,0,15,4952.33712269,2.40109104,True,222
100,0,0,coucou,11,2021-11-29T14:04:23.250Z,gomot_a.0094.eq.wav,0,16,5796.85824570,2.33373790,True,222
100,0,0,coucou,11,2021-11-29T14:04:23.250Z,gomot_a.0094.eq.wav,0,17,6767.56008152,-0.52670809,True,222
100,0,0,coucou,11,2021-11-29T14:04:23.250Z,gomot_a.0094.eq.wav,0,18,7883.29541175,1.88026256,True,222
100,0,0,coucou,11,2021-11-29T14:04:23.250Z,gomot_a.0094.eq.wav,0,19,9165.73383021,-2.46685339,True,222
100,0,0,coucou,11,2021-11-29T14:04:23.250Z,gomot_a.0094.eq.wav,0,20,10639.78260555,2.86061878,True,222
100,0,0,coucou,11,2021-11-29T14:04:23.250Z,gomot_a.0094.eq.wav,0,21,12334.07042541,-0.15905094,True,222
100,0,0,coucou,11,2021-11-29T14:04:23.250Z,gomot_a.0094.eq.wav,0,22,14281.50341712,-3.77484482,True,222
100,0,0,coucou,11,2021-11-29T14:04:23.250Z,gomot_a.0094.eq.wav,0,23,16519.90424416,-4.58751173,True,222
100,0,0,coucou,11,2021-11-29T14:04:23.250Z,gomot_a.0094.eq.wav,0,24,19092.74669051,-3.47114219,True,222
100,0,0,coucou,11,2021-11-29T14:04:23.250Z,gomot_a.0094.eq.wav,0,25,22050.00000000,1.38501533,True,222
100,0,0,coucou,11,2021-11-29T14:04:23.250Z,gomot_a.0088.eq.wav,1,0,0.00000000,1.65962174,False,222
100,0,0,coucou,11,2021-11-29T14:04:23.250Z,gomot_a.0088.eq.wav,1,1,104.58767290,-0.28647224,False,222
100,0,0,coucou,11,2021-11-29T14:04:23.250Z,gomot_a.0088.eq.wav,1,2,224.80189054,2.68888541,False,222
100,0,0,coucou,11,2021-11-29T14:04:23.250Z,gomot_a.0088.eq.wav,1,3,362.97743001,-3.33826939,False,222
100,0,0,coucou,11,2021-11-29T14:04:23.250Z,gomot_a.0088.eq.wav,1,4,521.79790965,3.22839701,False,222
100,0,0,coucou,11,2021-11-29T14:04:23.250Z,gomot_a.0088.eq.wav,1,5,704.34790983,-0.45654936,False,222
100,0,0,coucou,11,2021-11-29T14:04:23.250Z,gomot_a.0088.eq.wav,1,6,914.17288101,-4.59300556,False,222
100,0,0,coucou,11,2021-11-29T14:04:23.250Z,gomot_a.0088.eq.wav,1,7,1155.34800284,-3.89093924,False,222
100,0,0,coucou,11,2021-11-29T14:04:23.250Z,gomot_a.0088.eq.wav,1,8,1432.55733147,2.86835008,False,222
100,0,0,coucou,11,2021-11-29T14:04:23.250Z,gomot_a.0088.eq.wav,1,9,1751.18477235,1.16018479,False,222
100,0,0,coucou,11,2021-11-29T14:04:23.250Z,gomot_a.0088.eq.wav,1,10,2117.41864548,-1.74538255,False,222
100,0,0,coucou,11,2021-11-29T14:04:23.250Z,gomot_a.0088.eq.wav,1,11,2538.37187364,1.48602718,False,222
100,0,0,coucou,11,2021-11-29T14:04:23.250Z,gomot_a.0088.eq.wav,1,12,3022.22012828,-0.65952410,False,222
100,0,0,coucou,11,2021-11-29T14:04:23.250Z,gomot_a.0088.eq.wav,1,13,3578.36061576,-2.61090672,False,222
100,0,0,coucou,11,2021-11-29T14:04:23.250Z,gomot_a.0088.eq.wav,1,14,4217.59458808,-0.88543481,False,222
100,0,0,coucou,11,2021-11-29T14:04:23.250Z,gomot_a.0088.eq.wav,1,15,4952.33712269,3.53255853,False,222
100,0,0,coucou,11,2021-11-29T14:04:23.250Z,gomot_a.0088.eq.wav,1,16,5796.85824570,3.38447767,False,222
100,0,0,coucou,11,2021-11-29T14:04:23.250Z,gomot_a.0088.eq.wav,1,17,6767.56008152,-3.06832935,False,222
100,0,0,coucou,11,2021-11-29T14:04:23.250Z,gomot_a.0088.eq.wav,1,18,7883.29541175,0.24444990,False,222
100,0,0,coucou,11,2021-11-29T14:04:23.250Z,gomot_a.0088.eq.wav,1,19,9165.73383021,3.04294705,False,222
100,0,0,coucou,11,2021-11-29T14:04:23.250Z,gomot_a.0088.eq.wav,1,20,10639.78260555,2.01572600,False,222
100,0,0,coucou,11,2021-11-29T14:04:23.250Z,gomot_a.0088.eq.wav,1,21,12334.07042541,4.20272467,False,222
100,0,0,coucou,11,2021-11-29T14:04:23.250Z,gomot_a.0088.eq.wav,1,22,14281.50341712,3.39628771,False,222
100,0,0,coucou,11,2021-11-29T14:04:23.250Z,gomot_a.0088.eq.wav,1,23,16519.90424416,-4.66197091,False,222
100,0,0,coucou,11,2021-11-29T14:04:23.250Z,gomot_a.0088.eq.wav,1,24,19092.74669051,2.87433700,False,222
100,0,0,coucou,11,2021-11-29T14:04:23.250Z,gomot_a.0088.eq.wav,1,25,22050.00000000,-2.91159141,False,222
100,1,0,coucou,11,2021-11-29T14:04:23.250Z,gomot_a.0010.eq.wav,0,0,0.00000000,4.76484818,False,242
100,1,0,coucou,11,2021-11-29T14:04:23.250Z,gomot_a.0010.eq.wav,0,1,104.58767290,-3.64123341,False,242
100,1,0,coucou,11,2021-11-29T14:04:23.250Z,gomot_a.0010.eq.wav,0,2,224.80189054,-3.29929552,False,242
100,1,0,coucou,11,2021-11-29T14:04:23.250Z,gomot_a.0010.eq.wav,0,3,362.97743001,-1.35130748,False,242
100,1,0,coucou,11,2021-11-29T14:04:23.250Z,gomot_a.0010.eq.wav,0,4,521.79790965,-0.42802776,False,242
100,1,0,coucou,11,2021-11-29T14:04:23.250Z,gomot_a.0010.eq.wav,0,5,704.34790983,0.48684698,False,242
100,1,0,coucou,11,2021-11-29T14:04:23.250Z,gomot_a.0010.eq.wav,0,6,914.17288101,3.42049675,False,242
100,1,0,coucou,11,2021-11-29T14:04:23.250Z,gomot_a.0010.eq.wav,0,7,1155.34800284,-3.92619999,False,242
100,1,0,coucou,11,2021-11-29T14:04:23.250Z,gomot_a.0010.eq.wav,0,8,1432.55733147,-1.48386306,False,242
100,1,0,coucou,11,2021-11-29T14:04:23.250Z,gomot_a.0010.eq.wav,0,9,1751.18477235,1.59071940,False,242
100,1,0,coucou,11,2021-11-29T14:04:23.250Z,gomot_a.0010.eq.wav,0,10,2117.41864548,4.80709452,False,242
100,1,0,coucou,11,2021-11-29T14:04:23.250Z,gomot_a.0010.eq.wav,0,11,2538.37187364,-2.95180845,False,242
100,1,0,coucou,11,2021-11-29T14:04:23.250Z,gomot_a.0010.eq.wav,0,12,3022.22012828,3.03655648,False,242
100,1,0,coucou,11,2021-11-29T14:04:23.250Z,gomot_a.0010.eq.wav,0,13,3578.36061576,0.19126030,False,242
100,1,0,coucou,11,2021-11-29T14:04:23.250Z,gomot_a.0010.eq.wav,0,14,4217.59458808,2.80282884,False,242
100,1,0,coucou,11,2021-11-29T14:04:23.250Z,gomot_a.0010.eq.wav,0,15,4952.33712269,-4.33460234,False,242
100,1,0,coucou,11,2021-11-29T14:04:23.250Z,gomot_a.0010.eq.wav,0,16,5796.85824570,-2.93737939,False,242
100,1,0,coucou,11,2021-11-29T14:04:23.250Z,gomot_a.0010.eq.wav,0,17,6767.56008152,2.70699874,False,242
100,1,0,coucou,11,2021-11-29T14:04:23.250Z,gomot_a.0010.eq.wav,0,18,7883.29541175,0.89940852,False,242
100,1,0,coucou,11,2021-11-29T14:04:23.250Z,gomot_a.0010.eq.wav,0,19,9165.73383021,-3.24959485,False,242
100,1,0,coucou,11,2021-11-29T14:04:23.250Z,gomot_a.0010.eq.wav,0,20,10639.78260555,2.96451669,False,242
100,1,0,coucou,11,2021-11-29T14:04:23.250Z,gomot_a.0010.eq.wav,0,21,12334.07042541,0.36373860,False,242
100,1,0,coucou,11,2021-11-29T14:04:23.250Z,gomot_a.0010.eq.wav,0,22,14281.50341712,0.41700347,False,242
100,1,0,coucou,11,2021-11-29T14:04:23.250Z,gomot_a.0010.eq.wav,0,23,16519.90424416,0.00523963,False,242
100,1,0,coucou,11,2021-11-29T14:04:23.250Z,gomot_a.0010.eq.wav,0,24,19092.74669051,-2.29535379,False,242
100,1,0,coucou,11,2021-11-29T14:04:23.250Z,gomot_a.0010.eq.wav,0,25,22050.00000000,4.70737581,False,242
100,1,0,coucou,11,2021-11-29T14:04:23.250Z,gomot_a.0074.eq.wav,1,0,0.00000000,3.20546573,True,242
100,1,0,coucou,11,2021-11-29T14:04:23.250Z,gomot_a.0074.eq.wav,1,1,104.58767290,-1.02565774,True,242
100,1,0,coucou,11,2021-11-29T14:04:23.250Z,gomot_a.0074.eq.wav,1,2,224.80189054,-0.11075854,True,242
100,1,0,coucou,11,2021-11-29T14:04:23.250Z,gomot_a.0074.eq.wav,1,3,362.97743001,3.76114395,True,242
100,1,0,coucou,11,2021-11-29T14:04:23.250Z,gomot_a.0074.eq.wav,1,4,521.79790965,-0.43053190,True,242
100,1,0,coucou,11,2021-11-29T14:04:23.250Z,gomot_a.0074.eq.wav,1,5,704.34790983,-1.91086121,True,242
100,1,0,coucou,11,2021-11-29T14:04:23.250Z,gomot_a.0074.eq.wav,1,6,914.17288101,-2.80966703,True,242
100,1,0,coucou,11,2021-11-29T14:04:23.250Z,gomot_a.0074.eq.wav,1,7,1155.34800284,-1.85405237,True,242
100,1,0,coucou,11,2021-11-29T14:04:23.250Z,gomot_a.0074.eq.wav,1,8,1432.55733147,-2.89325857,True,242
100,1,0,coucou,11,2021-11-29T14:04:23.250Z,gomot_a.0074.eq.wav,1,9,1751.18477235,2.86084376,True,242
100,1,0,coucou,11,2021-11-29T14:04:23.250Z,gomot_a.0074.eq.wav,1,10,2117.41864548,-0.20590252,True,242
100,1,0,coucou,11,2021-11-29T14:04:23.250Z,gomot_a.0074.eq.wav,1,11,2538.37187364,-2.87611050,True,242
100,1,0,coucou,11,2021-11-29T14:04:23.250Z,gomot_a.0074.eq.wav,1,12,3022.22012828,-3.39023531,True,242
100,1,0,coucou,11,2021-11-29T14:04:23.250Z,gomot_a.0074.eq.wav,1,13,3578.36061576,1.21139741,True,242
100,1,0,coucou,11,2021-11-29T14:04:23.250Z,gomot_a.0074.eq.wav,1,14,4217.59458808,-3.17707285,True,242
100,1,0,coucou,11,2021-11-29T14:04:23.250Z,gomot_a.0074.eq.wav,1,15,4952.33712269,4.38540271,True,242
100,1,0,coucou,11,2021-11-29T14:04:23.250Z,gomot_a.0074.eq.wav,1,16,5796.85824570,-0.90053135,True,242
100,1,0,coucou,11,2021-11-29T14:04:23.250Z,gomot_a.0074.eq.wav,1,17,6767.56008152,2.17854294,True,242
100,1,0,coucou,11,2021-11-29T14:04:23.250Z,gomot_a.0074.eq.wav,1,18,7883.29541175,1.56353546,True,242
100,1,0,coucou,11,2021-11-29T14:04:23.250Z,gomot_a.0074.eq.wav,1,19,9165.73383021,0.07517963,True,242
100,1,0,coucou,11,2021-11-29T14:04:23.250Z,gomot_a.0074.eq.wav,1,20,10639.78260555,1.73708192,True,242
100,1,0,coucou,11,2021-11-29T14:04:23.250Z,gomot_a.0074.eq.wav,1,21,12334.07042541,-3.76163374,True,242
100,1,0,coucou,11,2021-11-29T14:04:23.250Z,gomot_a.0074.eq.wav,1,22,14281.50341712,-3.72887766,True,242
100,1,0,coucou,11,2021-11-29T14:04:23.250Z,gomot_a.0074.eq.wav,1,23,16519.90424416,0.84757217,True,242
100,1,0,coucou,11,2021-11-29T14:04:23.250Z,gomot_a.0074.eq.wav,1,24,19092.74669051,1.95081121,True,242
100,1,0,coucou,11,2021-11-29T14:04:23.250Z,gomot_a.0074.eq.wav,1,25,22050.00000000,4.80007404,True,242
100,2,0,coucou,11,2021-11-29T14:04:23.250Z,gomot_a.0048.eq.wav,0,0,0.00000000,1.71094624,True,262
100,2,0,coucou,11,2021-11-29T14:04:23.250Z,gomot_a.0048.eq.wav,0,1,104.58767290,-0.20220782,True,262
100,2,0,coucou,11,2021-11-29T14:04:23.250Z,gomot_a.0048.eq.wav,0,2,224.80189054,-0.84817272,True,262
100,2,0,coucou,11,2021-11-29T14:04:23.250Z,gomot_a.0048.eq.wav,0,3,362.97743001,2.51100069,True,262
100,2,0,coucou,11,2021-11-29T14:04:23.250Z,gomot_a.0048.eq.wav,0,4,521.79790965,4.21329811,True,262
100,2,0,coucou,11,2021-11-29T14:04:23.250Z,gomot_a.0048.eq.wav,0,5,704.34790983,2.95131213,True,262
100,2,0,coucou,11,2021-11-29T14:04:23.250Z,gomot_a.0048.eq.wav,0,6,914.17288101,-1.95767488,True,262
100,2,0,coucou,11,2021-11-29T14:04:23.250Z,gomot_a.0048.eq.wav,0,7,1155.34800284,2.42981099,True,262
100,2,0,coucou,11,2021-11-29T14:04:23.250Z,gomot_a.0048.eq.wav,0,8,1432.55733147,0.33978837,True,262
100,2,0,coucou,11,2021-11-29T14:04:23.250Z,gomot_a.0048.eq.wav,0,9,1751.18477235,3.59082878,True,262
100,2,0,coucou,11,2021-11-29T14:04:23.250Z,gomot_a.0048.eq.wav,0,10,2117.41864548,-0.43705357,True,262
100,2,0,coucou,11,2021-11-29T14:04:23.250Z,gomot_a.0048.eq.wav,0,11,2538.37187364,-4.43243895,True,262
100,2,0,coucou,11,2021-11-29T14:04:23.250Z,gomot_a.0048.eq.wav,0,12,3022.22012828,-0.41223053,True,262
100,2,0,coucou,11,2021-11-29T14:04:23.250Z,gomot_a.0048.eq.wav,0,13,3578.36061576,-0.37895669,True,262
100,2,0,coucou,11,2021-11-29T14:04:23.250Z,gomot_a.0048.eq.wav,0,14,4217.59458808,-4.18310750,True,262
100,2,0,coucou,11,2021-11-29T14:04:23.250Z,gomot_a.0048.eq.wav,0,15,4952.33712269,-3.38100725,True,262
100,2,0,coucou,11,2021-11-29T14:04:23.250Z,gomot_a.0048.eq.wav,0,16,5796.85824570,4.56091030,True,262
100,2,0,coucou,11,2021-11-29T14:04:23.250Z,gomot_a.0048.eq.wav,0,17,6767.56008152,3.36088848,True,262
100,2,0,coucou,11,2021-11-29T14:04:23.250Z,gomot_a.0048.eq.wav,0,18,7883.29541175,-3.68645277,True,262
100,2,0,coucou,11,2021-11-29T14:04:23.250Z,gomot_a.0048.eq.wav,0,19,9165.73383021,2.35947015,True,262
100,2,0,coucou,11,2021-11-29T14:04:23.250Z,gomot_a.0048.eq.wav,0,20,10639.78260555,-3.59891182,True,262
100,2,0,coucou,11,2021-11-29T14:04:23.250Z,gomot_a.0048.eq.wav,0,21,12334.07042541,-3.18148417,True,262
100,2,0,coucou,11,2021-11-29T14:04:23.250Z,gomot_a.0048.eq.wav,0,22,14281.50341712,2.48155897,True,262
100,2,0,coucou,11,2021-11-29T14:04:23.250Z,gomot_a.0048.eq.wav,0,23,16519.90424416,3.01790210,True,262
100,2,0,coucou,11,2021-11-29T14:04:23.250Z,gomot_a.0048.eq.wav,0,24,19092.74669051,2.72155416,True,262
100,2,0,coucou,11,2021-11-29T14:04:23.250Z,gomot_a.0048.eq.wav,0,25,22050.00000000,3.84591396,True,262
100,2,0,coucou,11,2021-11-29T14:04:23.250Z,gomot_a.0012.eq.wav,1,0,0.00000000,4.28010432,False,262
100,2,0,coucou,11,2021-11-29T14:04:23.250Z,gomot_a.0012.eq.wav,1,1,104.58767290,3.41044192,False,262
100,2,0,coucou,11,2021-11-29T14:04:23.250Z,gomot_a.0012.eq.wav,1,2,224.80189054,-2.82309944,False,262
100,2,0,coucou,11,2021-11-29T14:04:23.250Z,gomot_a.0012.eq.wav,1,3,362.97743001,-0.07195946,False,262
100,2,0,coucou,11,2021-11-29T14:04:23.250Z,gomot_a.0012.eq.wav,1,4,521.79790965,-4.24591408,False,262
100,2,0,coucou,11,2021-11-29T14:04:23.250Z,gomot_a.0012.eq.wav,1,5,704.34790983,-1.44081162,False,262
100,2,0,coucou,11,2021-11-29T14:04:23.250Z,gomot_a.0012.eq.wav,1,6,914.17288101,-1.03637800,False,262
100,2,0,coucou,11,2021-11-29T14:04:23.250Z,gomot_a.0012.eq.wav,1,7,1155.34800284,0.21908965,False,262
100,2,0,coucou,11,2021-11-29T14:04:23.250Z,gomot_a.0012.eq.wav,1,8,1432.55733147,-2.28343129,False,262
100,2,0,coucou,11,2021-11-29T14:04:23.250Z,gomot_a.0012.eq.wav,1,9,1751.18477235,-3.07516966,False,262
100,2,0,coucou,11,2021-11-29T14:04:23.250Z,gomot_a.0012.eq.wav,1,10,2117.41864548,2.81464466,False,262
100,2,0,coucou,11,2021-11-29T14:04:23.250Z,gomot_a.0012.eq.wav,1,11,2538.37187364,-1.80009627,False,262
100,2,0,coucou,11,2021-11-29T14:04:23.250Z,gomot_a.0012.eq.wav,1,12,3022.22012828,0.46659674,False,262
100,2,0,coucou,11,2021-11-29T14:04:23.250Z,gomot_a.0012.eq.wav,1,13,3578.36061576,-2.87402282,False,262
100,2,0,coucou,11,2021-11-29T14:04:23.250Z,gomot_a.0012.eq.wav,1,14,4217.59458808,1.65169813,False,262
100,2,0,coucou,11,2021-11-29T14:04:23.250Z,gomot_a.0012.eq.wav,1,15,4952.33712269,2.17558227,False,262
100,2,0,coucou,11,2021-11-29T14:04:23.250Z,gomot_a.0012.eq.wav,1,16,5796.85824570,-3.68397529,False,262
100,2,0,coucou,11,2021-11-29T14:04:23.250Z,gomot_a.0012.eq.wav,1,17,6767.56008152,2.14252534,False,262
100,2,0,coucou,11,2021-11-29T14:04:23.250Z,gomot_a.0012.eq.wav,1,18,7883.29541175,-4.81650877,False,262
100,2,0,coucou,11,2021-11-29T14:04:23.250Z,gomot_a.0012.eq.wav,1,19,9165.73383021,2.22166820,False,262
100,2,0,coucou,11,2021-11-29T14:04:23.250Z,gomot_a.0012.eq.wav,1,20,10639.78260555,1.00411465,False,262
100,2,0,coucou,11,2021-11-29T14:04:23.250Z,gomot_a.0012.eq.wav,1,21,12334.07042541,1.62760917,False,262
100,2,0,coucou,11,2021-11-29T14:04:23.250Z,gomot_a.0012.eq.wav,1,22,14281.50341712,0.19809166,False,262
100,2,0,coucou,11,2021-11-29T14:04:23.250Z,gomot_a.0012.eq.wav,1,23,16519.90424416,-1.79495078,False,262
100,2,0,coucou,11,2021-11-29T14:04:23.250Z,gomot_a.0012.eq.wav,1,24,19092.74669051,3.34689995,False,262
100,2,0,coucou,11,2021-11-29T14:04:23.250Z,gomot_a.0012.eq.wav,1,25,22050.00000000,-1.46213408,False,262
100,3,1,coucou,11,2021-11-29T14:04:23.250Z,gomot_a.0056.eq.wav,0,0,0.00000000,2.33971034,True,211
100,3,1,coucou,11,2021-11-29T14:04:23.250Z,gomot_a.0056.eq.wav,0,1,104.58767290,-1.75363780,True,211
100,3,1,coucou,11,2021-11-29T14:04:23.250Z,gomot_a.0056.eq.wav,0,2,224.80189054,-3.21923749,True,211
100,3,1,coucou,11,2021-11-29T14:04:23.250Z,gomot_a.0056.eq.wav,0,3,362.97743001,1.98288538,True,211
100,3,1,coucou,11,2021-11-29T14:04:23.250Z,gomot_a.0056.eq.wav,0,4,521.79790965,-1.64226637,True,211
100,3,1,coucou,11,2021-11-29T14:04:23.250Z,gomot_a.0056.eq.wav,0,5,704.34790983,3.88486586,True,211
100,3,1,coucou,11,2021-11-29T14:04:23.250Z,gomot_a.0056.eq.wav,0,6,914.17288101,-1.96772771,True,211
100,3,1,coucou,11,2021-11-29T14:04:23.250Z,gomot_a.0056.eq.wav,0,7,1155.34800284,-1.35244984,True,211
100,3,1,coucou,11,2021-11-29T14:04:23.250Z,gomot_a.0056.eq.wav,0,8,1432.55733147,-2.12434465,True,211
100,3,1,coucou,11,2021-11-29T14:04:23.250Z,gomot_a.0056.eq.wav,0,9,1751.18477235,-2.17133085,True,211
100,3,1,coucou,11,2021-11-29T14:04:23.250Z,gomot_a.0056.eq.wav,0,10,2117.41864548,-1.74795800,True,211
100,3,1,coucou,11,2021-11-29T14:04:23.250Z,gomot_a.0056.eq.wav,0,11,2538.37187364,-0.03285440,True,211
100,3,1,coucou,11,2021-11-29T14:04:23.250Z,gomot_a.0056.eq.wav,0,12,3022.22012828,4.25199860,True,211
100,3,1,coucou,11,2021-11-29T14:04:23.250Z,gomot_a.0056.eq.wav,0,13,3578.36061576,0.37979192,True,211
100,3,1,coucou,11,2021-11-29T14:04:23.250Z,gomot_a.0056.eq.wav,0,14,4217.59458808,0.79430991,True,211
100,3,1,coucou,11,2021-11-29T14:04:23.250Z,gomot_a.0056.eq.wav,0,15,4952.33712269,3.67592325,True,211
100,3,1,coucou,11,2021-11-29T14:04:23.250Z,gomot_a.0056.eq.wav,0,16,5796.85824570,-4.71685346,True,211
100,3,1,coucou,11,2021-11-29T14:04:23.250Z,gomot_a.0056.eq.wav,0,17,6767.56008152,-2.31017897,True,211
100,3,1,coucou,11,2021-11-29T14:04:23.250Z,gomot_a.0056.eq.wav,0,18,7883.29541175,-4.59008943,True,211
100,3,1,coucou,11,2021-11-29T14:04:23.250Z,gomot_a.0056.eq.wav,0,19,9165.73383021,0.22293197,True,211
100,3,1,coucou,11,2021-11-29T14:04:23.250Z,gomot_a.0056.eq.wav,0,20,10639.78260555,0.72793980,True,211
100,3,1,coucou,11,2021-11-29T14:04:23.250Z,gomot_a.0056.eq.wav,0,21,12334.07042541,3.13655081,True,211
100,3,1,coucou,11,2021-11-29T14:04:23.250Z,gomot_a.0056.eq.wav,0,22,14281.50341712,2.63360455,True,211
100,3,1,coucou,11,2021-11-29T14:04:23.250Z,gomot_a.0056.eq.wav,0,23,16519.90424416,0.74375962,True,211
100,3,1,coucou,11,2021-11-29T14:04:23.250Z,gomot_a.0056.eq.wav,0,24,19092.74669051,4.73162079,True,211
100,3,1,coucou,11,2021-11-29T14:04:23.250Z,gomot_a.0056.eq.wav,0,25,22050.00000000,-2.51743527,True,211
100,3,1,coucou,11,2021-11-29T14:04:23.250Z,gomot_a.0044.eq.wav,1,0,0.00000000,0.94142117,False,211
100,3,1,coucou,11,2021-11-29T14:04:23.250Z,gomot_a.0044.eq.wav,1,1,104.58767290,3.14136067,False,211
100,3,1,coucou,11,2021-11-29T14:04:23.250Z,gomot_a.0044.eq.wav,1,2,224.80189054,1.81013494,False,211
100,3,1,coucou,11,2021-11-29T14:04:23.250Z,gomot_a.0044.eq.wav,1,3,362.97743001,-4.90868480,False,211
100,3,1,coucou,11,2021-11-29T14:04:23.250Z,gomot_a.0044.eq.wav,1,4,521.79790965,0.10099343,False,211
100,3,1,coucou,11,2021-11-29T14:04:23.250Z,gomot_a.0044.eq.wav,1,5,704.34790983,-1.93565646,False,211
100,3,1,coucou,11,2021-11-29T14:04:23.250Z,gomot_a.0044.eq.wav,1,6,914.17288101,-2.49700616,False,211
100,3,1,coucou,11,2021-11-29T14:04:23.250Z,gomot_a.0044.eq.wav,1,7,1155.34800284,-3.79964535,False,211
100,3,1,coucou,11,2021-11-29T14:04:23.250Z,gomot_a.0044.eq.wav,1,8,1432.55733147,-1.79864044,False,211
100,3,1,coucou,11,2021-11-29T14:04:23.250Z,gomot_a.0044.eq.wav,1,9,1751.18477235,1.02704235,False,211
100,3,1,coucou,11,2021-11-29T14:04:23.250Z,gomot_a.0044.eq.wav,1,10,2117.41864548,1.81780761,False,211
100,3,1,coucou,11,2021-11-29T14:04:23.250Z,gomot_a.0044.eq.wav,1,11,2538.37187364,2.92914041,False,211
100,3,1,coucou,11,2021-11-29T14:04:23.250Z,gomot_a.0044.eq.wav,1,12,3022.22012828,-0.25146832,False,211
100,3,1,coucou,11,2021-11-29T14:04:23.250Z,gomot_a.0044.eq.wav,1,13,3578.36061576,-3.15430198,False,211
100,3,1,coucou,11,2021-11-29T14:04:23.250Z,gomot_a.0044.eq.wav,1,14,4217.59458808,-3.56676485,False,211
100,3,1,coucou,11,2021-11-29T14:04:23.250Z,gomot_a.0044.eq.wav,1,15,4952.33712269,-1.12292886,False,211
100,3,1,coucou,11,2021-11-29T14:04:23.250Z,gomot_a.0044.eq.wav,1,16,5796.85824570,-1.34881869,False,211
100,3,1,coucou,11,2021-11-29T14:04:23.250Z,gomot_a.0044.eq.wav,1,17,6767.56008152,-2.72093992,False,211
100,3,1,coucou,11,2021-11-29T14:04:23.250Z,gomot_a.0044.eq.wav,1,18,7883.29541175,3.26450461,False,211
100,3,1,coucou,11,2021-11-29T14:04:23.250Z,gomot_a.0044.eq.wav,1,19,9165.73383021,-1.06698006,False,211
100,3,1,coucou,11,2021-11-29T14:04:23.250Z,gomot_a.0044.eq.wav,1,20,10639.78260555,3.49518648,False,211
100,3,1,coucou,11,2021-11-29T14:04:23.250Z,gomot_a.0044.eq.wav,1,21,12334.07042541,2.06559544,False,211
100,3,1,coucou,11,2021-11-29T14:04:23.250Z,gomot_a.0044.eq.wav,1,22,14281.50341712,-1.79517374,False,211
100,3,1,coucou,11,2021-11-29T14:04:23.250Z,gomot_a.0044.eq.wav,1,23,16519.90424416,2.40563491,False,211
100,3,1,coucou,11,2021-11-29T14:04:23.250Z,gomot_a.0044.eq.wav,1,24,19092.74669051,0.92317097,False,211
100,3,1,coucou,11,2021-11-29T14:04:23.250Z,gomot_a.0044.eq.wav,1,25,22050.00000000,-3.78471798,False,211
100,4,1,coucou,11,2021-11-29T14:04:23.250Z,gomot_a.0063.eq.wav,0,0,0.00000000,1.85191729,False,165
100,4,1,coucou,11,2021-11-29T14:04:23.250Z,gomot_a.0063.eq.wav,0,1,104.58767290,-4.95081952,False,165
100,4,1,coucou,11,2021-11-29T14:04:23.250Z,gomot_a.0063.eq.wav,0,2,224.80189054,3.63341291,False,165
100,4,1,coucou,11,2021-11-29T14:04:23.250Z,gomot_a.0063.eq.wav,0,3,362.97743001,3.16013277,False,165
100,4,1,coucou,11,2021-11-29T14:04:23.250Z,gomot_a.0063.eq.wav,0,4,521.79790965,-4.92266097,False,165
100,4,1,coucou,11,2021-11-29T14:04:23.250Z,gomot_a.0063.eq.wav,0,5,704.34790983,-0.23087197,False,165
100,4,1,coucou,11,2021-11-29T14:04:23.250Z,gomot_a.0063.eq.wav,0,6,914.17288101,-4.67409468,False,165
100,4,1,coucou,11,2021-11-29T14:04:23.250Z,gomot_a.0063.eq.wav,0,7,1155.34800284,3.22900342,False,165
100,4,1,coucou,11,2021-11-29T14:04:23.250Z,gomot_a.0063.eq.wav,0,8,1432.55733147,-4.42760964,False,165
100,4,1,coucou,11,2021-11-29T14:04:23.250Z,gomot_a.0063.eq.wav,0,9,1751.18477235,2.56449670,False,165
100,4,1,coucou,11,2021-11-29T14:04:23.250Z,gomot_a.0063.eq.wav,0,10,2117.41864548,-2.73385595,False,165
100,4,1,coucou,11,2021-11-29T14:04:23.250Z,gomot_a.0063.eq.wav,0,11,2538.37187364,-2.63859979,False,165
100,4,1,coucou,11,2021-11-29T14:04:23.250Z,gomot_a.0063.eq.wav,0,12,3022.22012828,-0.73573724,False,165
100,4,1,coucou,11,2021-11-29T14:04:23.250Z,gomot_a.0063.eq.wav,0,13,3578.36061576,-3.67522903,False,165
100,4,1,coucou,11,2021-11-29T14:04:23.250Z,gomot_a.0063.eq.wav,0,14,4217.59458808,-0.60882486,False,165
100,4,1,coucou,11,2021-11-29T14:04:23.250Z,gomot_a.0063.eq.wav,0,15,4952.33712269,3.91509672,False,165
100,4,1,coucou,11,2021-11-29T14:04:23.250Z,gomot_a.0063.eq.wav,0,16,5796.85824570,1.38156050,False,165
100,4,1,coucou,11,2021-11-29T14:04:23.250Z,gomot_a.0063.eq.wav,0,17,6767.56008152,-0.83579813,False,165
100,4,1,coucou,11,2021-11-29T14:04:23.250Z,gomot_a.0063.eq.wav,0,18,7883.29541175,-1.15562339,False,165
100,4,1,coucou,11,2021-11-29T14:04:23.250Z,gomot_a.0063.eq.wav,0,19,9165.73383021,4.69924023,False,165
100,4,1,coucou,11,2021-11-29T14:04:23.250Z,gomot_a.0063.eq.wav,0,20,10639.78260555,-4.18266050,False,165
100,4,1,coucou,11,2021-11-29T14:04:23.250Z,gomot_a.0063.eq.wav,0,21,12334.07042541,1.52482290,False,165
100,4,1,coucou,11,2021-11-29T14:04:23.250Z,gomot_a.0063.eq.wav,0,22,14281.50341712,-4.03170807,False,165
100,4,1,coucou,11,2021-11-29T14:04:23.250Z,gomot_a.0063.eq.wav,0,23,16519.90424416,1.90566161,False,165
100,4,1,coucou,11,2021-11-29T14:04:23.250Z,gomot_a.0063.eq.wav,0,24,19092.74669051,0.69487688,False,165
100,4,1,coucou,11,2021-11-29T14:04:23.250Z,gomot_a.0063.eq.wav,0,25,22050.00000000,-3.51583053,False,165
100,4,1,coucou,11,2021-11-29T14:04:23.250Z,gomot_a.0083.eq.wav,1,0,0.00000000,-1.57463678,True,165
100,4,1,coucou,11,2021-11-29T14:04:23.250Z,gomot_a.0083.eq.wav,1,1,104.58767290,0.35415503,True,165
100,4,1,coucou,11,2021-11-29T14:04:23.250Z,gomot_a.0083.eq.wav,1,2,224.80189054,-4.87774726,True,165
100,4,1,coucou,11,2021-11-29T14:04:23.250Z,gomot_a.0083.eq.wav,1,3,362.97743001,1.16658728,True,165
100,4,1,coucou,11,2021-11-29T14:04:23.250Z,gomot_a.0083.eq.wav,1,4,521.79790965,1.86330852,True,165
100,4,1,coucou,11,2021-11-29T14:04:23.250Z,gomot_a.0083.eq.wav,1,5,704.34790983,3.89530619,True,165
100,4,1,coucou,11,2021-11-29T14:04:23.250Z,gomot_a.0083.eq.wav,1,6,914.17288101,-4.58596069,True,165
100,4,1,coucou,11,2021-11-29T14:04:23.250Z,gomot_a.0083.eq.wav,1,7,1155.34800284,-1.30019220,True,165
100,4,1,coucou,11,2021-11-29T14:04:23.250Z,gomot_a.0083.eq.wav,1,8,1432.55733147,4.19563655,True,165
100,4,1,coucou,11,2021-11-29T14:04:23.250Z,gomot_a.0083.eq.wav,1,9,1751.18477235,-1.58310070,True,165
100,4,1,coucou,11,2021-11-29T14:04:23.250Z,gomot_a.0083.eq.wav,1,10,2117.41864548,-4.86618553,True,165
100,4,1,coucou,11,2021-11-29T14:04:23.250Z,gomot_a.0083.eq.wav,1,11,2538.37187364,-0.30063484,True,165
100,4,1,coucou,11,2021-11-29T14:04:23.250Z,gomot_a.0083.eq.wav,1,12,3022.22012828,0.45428118,True,165
100,4,1,coucou,11,2021-11-29T14:04:23.250Z,gomot_a.0083.eq.wav,1,13,3578.36061576,-0.25281106,True,165
100,4,1,coucou,11,2021-11-29T14:04:23.250Z,gomot_a.0083.eq.wav,1,14,4217.59458808,2.88931580,True,165
100,4,1,coucou,11,2021-11-29T14:04:23.250Z,gomot_a.0083.eq.wav,1,15,4952.33712269,-3.80315762,True,165
100,4,1,coucou,11,2021-11-29T14:04:23.250Z,gomot_a.0083.eq.wav,1,16,5796.85824570,3.97665789,True,165
100,4,1,coucou,11,2021-11-29T14:04:23.250Z,gomot_a.0083.eq.wav,1,17,6767.56008152,4.81232803,True,165
100,4,1,coucou,11,2021-11-29T14:04:23.250Z,gomot_a.0083.eq.wav,1,18,7883.29541175,-2.38673057,True,165
100,4,1,coucou,11,2021-11-29T14:04:23.250Z,gomot_a.0083.eq.wav,1,19,9165.73383021,2.09366960,True,165
100,4,1,coucou,11,2021-11-29T14:04:23.250Z,gomot_a.0083.eq.wav,1,20,10639.78260555,4.05530591,True,165
100,4,1,coucou,11,2021-11-29T14:04:23.250Z,gomot_a.0083.eq.wav,1,21,12334.07042541,-2.67933947,True,165
100,4,1,coucou,11,2021-11-29T14:04:23.250Z,gomot_a.0083.eq.wav,1,22,14281.50341712,3.17218485,True,165
100,4,1,coucou,11,2021-11-29T14:04:23.250Z,gomot_a.0083.eq.wav,1,23,16519.90424416,2.77870773,True,165
100,4,1,coucou,11,2021-11-29T14:04:23.250Z,gomot_a.0083.eq.wav,1,24,19092.74669051,-2.03513287,True,165
100,4,1,coucou,11,2021-11-29T14:04:23.250Z,gomot_a.0083.eq.wav,1,25,22050.00000000,-3.67240514,True,165
100,5,1,coucou,11,2021-11-29T14:04:23.250Z,gomot_a.0003.eq.wav,0,0,0.00000000,2.98720375,True,217
100,5,1,coucou,11,2021-11-29T14:04:23.250Z,gomot_a.0003.eq.wav,0,1,104.58767290,4.17012362,True,217
100,5,1,coucou,11,2021-11-29T14:04:23.250Z,gomot_a.0003.eq.wav,0,2,224.80189054,-1.97180604,True,217
100,5,1,coucou,11,2021-11-29T14:04:23.250Z,gomot_a.0003.eq.wav,0,3,362.97743001,-4.28115004,True,217
100,5,1,coucou,11,2021-11-29T14:04:23.250Z,gomot_a.0003.eq.wav,0,4,521.79790965,0.97548096,True,217
100,5,1,coucou,11,2021-11-29T14:04:23.250Z,gomot_a.0003.eq.wav,0,5,704.34790983,-0.72919709,True,217
100,5,1,coucou,11,2021-11-29T14:04:23.250Z,gomot_a.0003.eq.wav,0,6,914.17288101,-0.82374196,True,217
100,5,1,coucou,11,2021-11-29T14:04:23.250Z,gomot_a.0003.eq.wav,0,7,1155.34800284,0.25839582,True,217
100,5,1,coucou,11,2021-11-29T14:04:23.250Z,gomot_a.0003.eq.wav,0,8,1432.55733147,-1.84801817,True,217
100,5,1,coucou,11,2021-11-29T14:04:23.250Z,gomot_a.0003.eq.wav,0,9,1751.18477235,-0.22009132,True,217
100,5,1,coucou,11,2021-11-29T14:04:23.250Z,gomot_a.0003.eq.wav,0,10,2117.41864548,-2.12908878,True,217
100,5,1,coucou,11,2021-11-29T14:04:23.250Z,gomot_a.0003.eq.wav,0,11,2538.37187364,1.12532798,True,217
100,5,1,coucou,11,2021-11-29T14:04:23.250Z,gomot_a.0003.eq.wav,0,12,3022.22012828,-0.14817055,True,217
100,5,1,coucou,11,2021-11-29T14:04:23.250Z,gomot_a.0003.eq.wav,0,13,3578.36061576,-0.70429606,True,217
100,5,1,coucou,11,2021-11-29T14:04:23.250Z,gomot_a.0003.eq.wav,0,14,4217.59458808,1.40276192,True,217
100,5,1,coucou,11,2021-11-29T14:04:23.250Z,gomot_a.0003.eq.wav,0,15,4952.33712269,-0.39553689,True,217
100,5,1,coucou,11,2021-11-29T14:04:23.250Z,gomot_a.0003.eq.wav,0,16,5796.85824570,-1.40415132,True,217
100,5,1,coucou,11,2021-11-29T14:04:23.250Z,gomot_a.0003.eq.wav,0,17,6767.56008152,-0.23938728,True,217
100,5,1,coucou,11,2021-11-29T14:04:23.250Z,gomot_a.0003.eq.wav,0,18,7883.29541175,-2.65916865,True,217
100,5,1,coucou,11,2021-11-29T14:04:23.250Z,gomot_a.0003.eq.wav,0,19,9165.73383021,-1.44677948,True,217
100,5,1,coucou,11,2021-11-29T14:04:23.250Z,gomot_a.0003.eq.wav,0,20,10639.78260555,1.54221546,True,217
100,5,1,coucou,11,2021-11-29T14:04:23.250Z,gomot_a.0003.eq.wav,0,21,12334.07042541,-2.95405369,True,217
100,5,1,coucou,11,2021-11-29T14:04:23.250Z,gomot_a.0003.eq.wav,0,22,14281.50341712,-1.92099263,True,217
100,5,1,coucou,11,2021-11-29T14:04:23.250Z,gomot_a.0003.eq.wav,0,23,16519.90424416,1.17350834,True,217
100,5,1,coucou,11,2021-11-29T14:04:23.250Z,gomot_a.0003.eq.wav,0,24,19092.74669051,2.78284103,True,217
100,5,1,coucou,11,2021-11-29T14:04:23.250Z,gomot_a.0003.eq.wav,0,25,22050.00000000,3.66063521,True,217
100,5,1,coucou,11,2021-11-29T14:04:23.250Z,gomot_a.0032.eq.wav,1,0,0.00000000,0.51760013,False,217
100,5,1,coucou,11,2021-11-29T14:04:23.250Z,gomot_a.0032.eq.wav,1,1,104.58767290,4.06367340,False,217
100,5,1,coucou,11,2021-11-29T14:04:23.250Z,gomot_a.0032.eq.wav,1,2,224.80189054,4.90779052,False,217
100,5,1,coucou,11,2021-11-29T14:04:23.250Z,gomot_a.0032.eq.wav,1,3,362.97743001,-2.15525493,False,217
100,5,1,coucou,11,2021-11-29T14:04:23.250Z,gomot_a.0032.eq.wav,1,4,521.79790965,-3.14671014,False,217
100,5,1,coucou,11,2021-11-29T14:04:23.250Z,gomot_a.0032.eq.wav,1,5,704.34790983,-2.84263417,False,217
100,5,1,coucou,11,2021-11-29T14:04:23.250Z,gomot_a.0032.eq.wav,1,6,914.17288101,2.90736119,False,217
100,5,1,coucou,11,2021-11-29T14:04:23.250Z,gomot_a.0032.eq.wav,1,7,1155.34800284,4.17897348,False,217
100,5,1,coucou,11,2021-11-29T14:04:23.250Z,gomot_a.0032.eq.wav,1,8,1432.55733147,1.41254736,False,217
100,5,1,coucou,11,2021-11-29T14:04:23.250Z,gomot_a.0032.eq.wav,1,9,1751.18477235,3.27747173,False,217
100,5,1,coucou,11,2021-11-29T14:04:23.250Z,gomot_a.0032.eq.wav,1,10,2117.41864548,1.94744596,False,217
100,5,1,coucou,11,2021-11-29T14:04:23.250Z,gomot_a.0032.eq.wav,1,11,2538.37187364,-1.51726567,False,217
100,5,1,coucou,11,2021-11-29T14:04:23.250Z,gomot_a.0032.eq.wav,1,12,3022.22012828,-3.09142255,False,217
100,5,1,coucou,11,2021-11-29T14:04:23.250Z,gomot_a.0032.eq.wav,1,13,3578.36061576,-3.43431185,False,217
100,5,1,coucou,11,2021-11-29T14:04:23.250Z,gomot_a.0032.eq.wav,1,14,4217.59458808,0.95832671,False,217
100,5,1,coucou,11,2021-11-29T14:04:23.250Z,gomot_a.0032.eq.wav,1,15,4952.33712269,0.49695892,False,217
100,5,1,coucou,11,2021-11-29T14:04:23.250Z,gomot_a.0032.eq.wav,1,16,5796.85824570,-3.89146373,False,217
100,5,1,coucou,11,2021-11-29T14:04:23.250Z,gomot_a.0032.eq.wav,1,17,6767.56008152,-3.21242219,False,217
100,5,1,coucou,11,2021-11-29T14:04:23.250Z,gomot_a.0032.eq.wav,1,18,7883.29541175,-3.60413477,False,217
100,5,1,coucou,11,2021-11-29T14:04:23.250Z,gomot_a.0032.eq.wav,1,19,9165.73383021,-0.95649900,False,217
100,5,1,coucou,11,2021-11-29T14:04:23.250Z,gomot_a.0032.eq.wav,1,20,10639.78260555,0.74898005,False,217
100,5,1,coucou,11,2021-11-29T14:04:23.250Z,gomot_a.0032.eq.wav,1,21,12334.07042541,3.57720707,False,217
100,5,1,coucou,11,2021-11-29T14:04:23.250Z,gomot_a.0032.eq.wav,1,22,14281.50341712,-2.04480728,False,217
100,5,1,coucou,11,2021-11-29T14:04:23.250Z,gomot_a.0032.eq.wav,1,23,16519.90424416,4.48352558,False,217
100,5,1,coucou,11,2021-11-29T14:04:23.250Z,gomot_a.0032.eq.wav,1,24,19092.74669051,-3.67660269,False,217
100,5,1,coucou,11,2021-11-29T14:04:23.250Z,gomot_a.0032.eq.wav,1,25,22050.00000000,2.92256223,False,217
100,6,2,coucou,11,2021-11-29T14:04:23.250Z,gomot_a.0070.eq.wav,0,0,0.00000000,4.39900434,False,258
100,6,2,coucou,11,2021-11-29T14:04:23.250Z,gomot_a.0070.eq.wav,0,1,104.58767290,2.24044662,False,258
100,6,2,coucou,11,2021-11-29T14:04:23.250Z,gomot_a.0070.eq.wav,0,2,224.80189054,2.00732075,False,258
100,6,2,coucou,11,2021-11-29T14:04:23.250Z,gomot_a.0070.eq.wav,0,3,362.97743001,-1.00050393,False,258
100,6,2,coucou,11,2021-11-29T14:04:23.250Z,gomot_a.0070.eq.wav,0,4,521.79790965,-4.93416883,False,258
100,6,2,coucou,11,2021-11-29T14:04:23.250Z,gomot_a.0070.eq.wav,0,5,704.34790983,3.94118854,False,258
100,6,2,coucou,11,2021-11-29T14:04:23.250Z,gomot_a.0070.eq.wav,0,6,914.17288101,4.08698564,False,258
100,6,2,coucou,11,2021-11-29T14:04:23.250Z,gomot_a.0070.eq.wav,0,7,1155.34800284,1.12628047,False,258
100,6,2,coucou,11,2021-11-29T14:04:23.250Z,gomot_a.0070.eq.wav,0,8,1432.55733147,-0.39934258,False,258
100,6,2,coucou,11,2021-11-29T14:04:23.250Z,gomot_a.0070.eq.wav,0,9,1751.18477235,-3.30027928,False,258
100,6,2,coucou,11,2021-11-29T14:04:23.250Z,gomot_a.0070.eq.wav,0,10,2117.41864548,2.67642285,False,258
100,6,2,coucou,11,2021-11-29T14:04:23.250Z,gomot_a.0070.eq.wav,0,11,2538.37187364,-3.36812522,False,258
100,6,2,coucou,11,2021-11-29T14:04:23.250Z,gomot_a.0070.eq.wav,0,12,3022.22012828,1.58093076,False,258
100,6,2,coucou,11,2021-11-29T14:04:23.250Z,gomot_a.0070.eq.wav,0,13,3578.36061576,-1.84292088,False,258
100,6,2,coucou,11,2021-11-29T14:04:23.250Z,gomot_a.0070.eq.wav,0,14,4217.59458808,-1.26908216,False,258
100,6,2,coucou,11,2021-11-29T14:04:23.250Z,gomot_a.0070.eq.wav,0,15,4952.33712269,-3.00521609,False,258
100,6,2,coucou,11,2021-11-29T14:04:23.250Z,gomot_a.0070.eq.wav,0,16,5796.85824570,-0.44336552,False,258
100,6,2,coucou,11,2021-11-29T14:04:23.250Z,gomot_a.0070.eq.wav,0,17,6767.56008152,1.27290765,False,258
100,6,2,coucou,11,2021-11-29T14:04:23.250Z,gomot_a.0070.eq.wav,0,18,7883.29541175,0.48045994,False,258
100,6,2,coucou,11,2021-11-29T14:04:23.250Z,gomot_a.0070.eq.wav,0,19,9165.73383021,-4.80818218,False,258
100,6,2,coucou,11,2021-11-29T14:04:23.250Z,gomot_a.0070.eq.wav,0,20,10639.78260555,1.85645330,False,258
100,6,2,coucou,11,2021-11-29T14:04:23.250Z,gomot_a.0070.eq.wav,0,21,12334.07042541,-1.66694334,False,258
100,6,2,coucou,11,2021-11-29T14:04:23.250Z,gomot_a.0070.eq.wav,0,22,14281.50341712,0.27802223,False,258
100,6,2,coucou,11,2021-11-29T14:04:23.250Z,gomot_a.0070.eq.wav,0,23,16519.90424416,-2.76917251,False,258
100,6,2,coucou,11,2021-11-29T14:04:23.250Z,gomot_a.0070.eq.wav,0,24,19092.74669051,2.77320888,False,258
100,6,2,coucou,11,2021-11-29T14:04:23.250Z,gomot_a.0070.eq.wav,0,25,22050.00000000,-1.43670391,False,258
100,6,2,coucou,11,2021-11-29T14:04:23.250Z,gomot_a.0066.eq.wav,1,0,0.00000000,3.16850798,True,258
100,6,2,coucou,11,2021-11-29T14:04:23.250Z,gomot_a.0066.eq.wav,1,1,104.58767290,-3.61169696,True,258
100,6,2,coucou,11,2021-11-29T14:04:23.250Z,gomot_a.0066.eq.wav,1,2,224.80189054,-0.97706244,True,258
100,6,2,coucou,11,2021-11-29T14:04:23.250Z,gomot_a.0066.eq.wav,1,3,362.97743001,-1.28553144,True,258
100,6,2,coucou,11,2021-11-29T14:04:23.250Z,gomot_a.0066.eq.wav,1,4,521.79790965,0.30328041,True,258
100,6,2,coucou,11,2021-11-29T14:04:23.250Z,gomot_a.0066.eq.wav,1,5,704.34790983,-1.55901040,True,258
100,6,2,coucou,11,2021-11-29T14:04:23.250Z,gomot_a.0066.eq.wav,1,6,914.17288101,4.00630043,True,258
100,6,2,coucou,11,2021-11-29T14:04:23.250Z,gomot_a.0066.eq.wav,1,7,1155.34800284,-3.01256833,True,258
100,6,2,coucou,11,2021-11-29T14:04:23.250Z,gomot_a.0066.eq.wav,1,8,1432.55733147,3.65867753,True,258
100,6,2,coucou,11,2021-11-29T14:04:23.250Z,gomot_a.0066.eq.wav,1,9,1751.18477235,2.54453690,True,258
100,6,2,coucou,11,2021-11-29T14:04:23.250Z,gomot_a.0066.eq.wav,1,10,2117.41864548,-1.69848937,True,258
100,6,2,coucou,11,2021-11-29T14:04:23.250Z,gomot_a.0066.eq.wav,1,11,2538.37187364,-1.92863323,True,258
100,6,2,coucou,11,2021-11-29T14:04:23.250Z,gomot_a.0066.eq.wav,1,12,3022.22012828,0.25665247,True,258
100,6,2,coucou,11,2021-11-29T14:04:23.250Z,gomot_a.0066.eq.wav,1,13,3578.36061576,-1.25686621,True,258
100,6,2,coucou,11,2021-11-29T14:04:23.250Z,gomot_a.0066.eq.wav,1,14,4217.59458808,3.35160366,True,258
100,6,2,coucou,11,2021-11-29T14:04:23.250Z,gomot_a.0066.eq.wav,1,15,4952.33712269,2.08259707,True,258
100,6,2,coucou,11,2021-11-29T14:04:23.250Z,gomot_a.0066.eq.wav,1,16,5796.85824570,-2.89743311,True,258
100,6,2,coucou,11,2021-11-29T14:04:23.250Z,gomot_a.0066.eq.wav,1,17,6767.56008152,-4.90515082,True,258
100,6,2,coucou,11,2021-11-29T14:04:23.250Z,gomot_a.0066.eq.wav,1,18,7883.29541175,3.16072446,True,258
100,6,2,coucou,11,2021-11-29T14:04:23.250Z,gomot_a.0066.eq.wav,1,19,9165.73383021,-0.28241308,True,258
100,6,2,coucou,11,2021-11-29T14:04:23.250Z,gomot_a.0066.eq.wav,1,20,10639.78260555,2.36594386,True,258
100,6,2,coucou,11,2021-11-29T14:04:23.250Z,gomot_a.0066.eq.wav,1,21,12334.07042541,-4.19926312,True,258
100,6,2,coucou,11,2021-11-29T14:04:23.250Z,gomot_a.0066.eq.wav,1,22,14281.50341712,-3.70064105,True,258
100,6,2,coucou,11,2021-11-29T14:04:23.250Z,gomot_a.0066.eq.wav,1,23,16519.90424416,3.64981698,True,258
100,6,2,coucou,11,2021-11-29T14:04:23.250Z,gomot_a.0066.eq.wav,1,24,19092.74669051,0.37409401,True,258
100,6,2,coucou,11,2021-11-29T14:04:23.250Z,gomot_a.0066.eq.wav,1,25,22050.00000000,-1.58566908,True,258
100,7,2,coucou,11,2021-11-29T14:04:23.250Z,gomot_a.0030.eq.wav,0,0,0.00000000,-1.99228340,False,201
100,7,2,coucou,11,2021-11-29T14:04:23.250Z,gomot_a.0030.eq.wav,0,1,104.58767290,3.14541368,False,201
100,7,2,coucou,11,2021-11-29T14:04:23.250Z,gomot_a.0030.eq.wav,0,2,224.80189054,1.78664020,False,201
100,7,2,coucou,11,2021-11-29T14:04:23.250Z,gomot_a.0030.eq.wav,0,3,362.97743001,-0.57278758,False,201
100,7,2,coucou,11,2021-11-29T14:04:23.250Z,gomot_a.0030.eq.wav,0,4,521.79790965,1.55307533,False,201
100,7,2,coucou,11,2021-11-29T14:04:23.250Z,gomot_a.0030.eq.wav,0,5,704.34790983,-2.64123727,False,201
100,7,2,coucou,11,2021-11-29T14:04:23.250Z,gomot_a.0030.eq.wav,0,6,914.17288101,2.35437799,False,201
100,7,2,coucou,11,2021-11-29T14:04:23.250Z,gomot_a.0030.eq.wav,0,7,1155.34800284,4.25553306,False,201
100,7,2,coucou,11,2021-11-29T14:04:23.250Z,gomot_a.0030.eq.wav,0,8,1432.55733147,-4.69917001,False,201
100,7,2,coucou,11,2021-11-29T14:04:23.250Z,gomot_a.0030.eq.wav,0,9,1751.18477235,-1.09953310,False,201
100,7,2,coucou,11,2021-11-29T14:04:23.250Z,gomot_a.0030.eq.wav,0,10,2117.41864548,4.57044722,False,201
100,7,2,coucou,11,2021-11-29T14:04:23.250Z,gomot_a.0030.eq.wav,0,11,2538.37187364,-3.98973169,False,201
100,7,2,coucou,11,2021-11-29T14:04:23.250Z,gomot_a.0030.eq.wav,0,12,3022.22012828,1.16864025,False,201
100,7,2,coucou,11,2021-11-29T14:04:23.250Z,gomot_a.0030.eq.wav,0,13,3578.36061576,2.95022966,False,201
100,7,2,coucou,11,2021-11-29T14:04:23.250Z,gomot_a.0030.eq.wav,0,14,4217.59458808,-3.57182748,False,201
100,7,2,coucou,11,2021-11-29T14:04:23.250Z,gomot_a.0030.eq.wav,0,15,4952.33712269,3.56689395,False,201
100,7,2,coucou,11,2021-11-29T14:04:23.250Z,gomot_a.0030.eq.wav,0,16,5796.85824570,2.54769091,False,201
100,7,2,coucou,11,2021-11-29T14:04:23.250Z,gomot_a.0030.eq.wav,0,17,6767.56008152,0.20309231,False,201
100,7,2,coucou,11,2021-11-29T14:04:23.250Z,gomot_a.0030.eq.wav,0,18,7883.29541175,-3.18053613,False,201
100,7,2,coucou,11,2021-11-29T14:04:23.250Z,gomot_a.0030.eq.wav,0,19,9165.73383021,-3.81070762,False,201
100,7,2,coucou,11,2021-11-29T14:04:23.250Z,gomot_a.0030.eq.wav,0,20,10639.78260555,-0.22536187,False,201
100,7,2,coucou,11,2021-11-29T14:04:23.250Z,gomot_a.0030.eq.wav,0,21,12334.07042541,1.88362508,False,201
100,7,2,coucou,11,2021-11-29T14:04:23.250Z,gomot_a.0030.eq.wav,0,22,14281.50341712,-3.54717816,False,201
100,7,2,coucou,11,2021-11-29T14:04:23.250Z,gomot_a.0030.eq.wav,0,23,16519.90424416,3.54203830,False,201
100,7,2,coucou,11,2021-11-29T14:04:23.250Z,gomot_a.0030.eq.wav,0,24,19092.74669051,-1.92475378,False,201
100,7,2,coucou,11,2021-11-29T14:04:23.250Z,gomot_a.0030.eq.wav,0,25,22050.00000000,0.53588736,False,201
100,7,2,coucou,11,2021-11-29T14:04:23.250Z,gomot_a.0042.eq.wav,1,0,0.00000000,3.06394314,True,201
100,7,2,coucou,11,2021-11-29T14:04:23.250Z,gomot_a.0042.eq.wav,1,1,104.58767290,2.68066523,True,201
100,7,2,coucou,11,2021-11-29T14:04:23.250Z,gomot_a.0042.eq.wav,1,2,224.80189054,1.73816489,True,201
100,7,2,coucou,11,2021-11-29T14:04:23.250Z,gomot_a.0042.eq.wav,1,3,362.97743001,-1.59117583,True,201
100,7,2,coucou,11,2021-11-29T14:04:23.250Z,gomot_a.0042.eq.wav,1,4,521.79790965,-4.72266158,True,201
100,7,2,coucou,11,2021-11-29T14:04:23.250Z,gomot_a.0042.eq.wav,1,5,704.34790983,-2.61459389,True,201
100,7,2,coucou,11,2021-11-29T14:04:23.250Z,gomot_a.0042.eq.wav,1,6,914.17288101,0.35536066,True,201
100,7,2,coucou,11,2021-11-29T14:04:23.250Z,gomot_a.0042.eq.wav,1,7,1155.34800284,0.75064545,True,201
100,7,2,coucou,11,2021-11-29T14:04:23.250Z,gomot_a.0042.eq.wav,1,8,1432.55733147,-0.93642418,True,201
100,7,2,coucou,11,2021-11-29T14:04:23.250Z,gomot_a.0042.eq.wav,1,9,1751.18477235,-2.70285145,True,201
100,7,2,coucou,11,2021-11-29T14:04:23.250Z,gomot_a.0042.eq.wav,1,10,2117.41864548,-1.75061195,True,201
100,7,2,coucou,11,2021-11-29T14:04:23.250Z,gomot_a.0042.eq.wav,1,11,2538.37187364,-0.48205504,True,201
100,7,2,coucou,11,2021-11-29T14:04:23.250Z,gomot_a.0042.eq.wav,1,12,3022.22012828,-2.83287232,True,201
100,7,2,coucou,11,2021-11-29T14:04:23.250Z,gomot_a.0042.eq.wav,1,13,3578.36061576,1.70711710,True,201
100,7,2,coucou,11,2021-11-29T14:04:23.250Z,gomot_a.0042.eq.wav,1,14,4217.59458808,4.01588372,True,201
100,7,2,coucou,11,2021-11-29T14:04:23.250Z,gomot_a.0042.eq.wav,1,15,4952.33712269,4.34709638,True,201
100,7,2,coucou,11,2021-11-29T14:04:23.250Z,gomot_a.0042.eq.wav,1,16,5796.85824570,-1.79903919,True,201
100,7,2,coucou,11,2021-11-29T14:04:23.250Z,gomot_a.0042.eq.wav,1,17,6767.56008152,-3.00135213,True,201
100,7,2,coucou,11,2021-11-29T14:04:23.250Z,gomot_a.0042.eq.wav,1,18,7883.29541175,-2.37156868,True,201
100,7,2,coucou,11,2021-11-29T14:04:23.250Z,gomot_a.0042.eq.wav,1,19,9165.73383021,-3.35800092,True,201
100,7,2,coucou,11,2021-11-29T14:04:23.250Z,gomot_a.0042.eq.wav,1,20,10639.78260555,-2.95075993,True,201
100,7,2,coucou,11,2021-11-29T14:04:23.250Z,gomot_a.0042.eq.wav,1,21,12334.07042541,0.15131071,True,201
100,7,2,coucou,11,2021-11-29T14:04:23.250Z,gomot_a.0042.eq.wav,1,22,14281.50341712,-0.59590931,True,201
100,7,2,coucou,11,2021-11-29T14:04:23.250Z,gomot_a.0042.eq.wav,1,23,16519.90424416,2.91496540,True,201
100,7,2,coucou,11,2021-11-29T14:04:23.250Z,gomot_a.0042.eq.wav,1,24,19092.74669051,4.32343871,True,201
100,7,2,coucou,11,2021-11-29T14:04:23.250Z,gomot_a.0042.eq.wav,1,25,22050.00000000,-4.87347043,True,201
100,8,2,coucou,11,2021-11-29T14:04:23.250Z,gomot_a.0073.eq.wav,0,0,0.00000000,-3.70274805,False,597
100,8,2,coucou,11,2021-11-29T14:04:23.250Z,gomot_a.0073.eq.wav,0,1,104.58767290,0.58686430,False,597
100,8,2,coucou,11,2021-11-29T14:04:23.250Z,gomot_a.0073.eq.wav,0,2,224.80189054,1.64263069,False,597
100,8,2,coucou,11,2021-11-29T14:04:23.250Z,gomot_a.0073.eq.wav,0,3,362.97743001,-0.05832789,False,597
100,8,2,coucou,11,2021-11-29T14:04:23.250Z,gomot_a.0073.eq.wav,0,4,521.79790965,-1.41682181,False,597
100,8,2,coucou,11,2021-11-29T14:04:23.250Z,gomot_a.0073.eq.wav,0,5,704.34790983,1.80987332,False,597
100,8,2,coucou,11,2021-11-29T14:04:23.250Z,gomot_a.0073.eq.wav,0,6,914.17288101,2.20518022,False,597
100,8,2,coucou,11,2021-11-29T14:04:23.250Z,gomot_a.0073.eq.wav,0,7,1155.34800284,2.60464897,False,597
100,8,2,coucou,11,2021-11-29T14:04:23.250Z,gomot_a.0073.eq.wav,0,8,1432.55733147,-0.16079965,False,597
100,8,2,coucou,11,2021-11-29T14:04:23.250Z,gomot_a.0073.eq.wav,0,9,1751.18477235,-1.51022837,False,597
100,8,2,coucou,11,2021-11-29T14:04:23.250Z,gomot_a.0073.eq.wav,0,10,2117.41864548,-0.65540311,False,597
100,8,2,coucou,11,2021-11-29T14:04:23.250Z,gomot_a.0073.eq.wav,0,11,2538.37187364,-4.52188033,False,597
100,8,2,coucou,11,2021-11-29T14:04:23.250Z,gomot_a.0073.eq.wav,0,12,3022.22012828,2.16598687,False,597
100,8,2,coucou,11,2021-11-29T14:04:23.250Z,gomot_a.0073.eq.wav,0,13,3578.36061576,3.21069131,False,597
100,8,2,coucou,11,2021-11-29T14:04:23.250Z,gomot_a.0073.eq.wav,0,14,4217.59458808,-3.70415772,False,597
100,8,2,coucou,11,2021-11-29T14:04:23.250Z,gomot_a.0073.eq.wav,0,15,4952.33712269,-1.76509823,False,597
100,8,2,coucou,11,2021-11-29T14:04:23.250Z,gomot_a.0073.eq.wav,0,16,5796.85824570,-2.88966271,False,597
100,8,2,coucou,11,2021-11-29T14:04:23.250Z,gomot_a.0073.eq.wav,0,17,6767.56008152,1.64277836,False,597
100,8,2,coucou,11,2021-11-29T14:04:23.250Z,gomot_a.0073.eq.wav,0,18,7883.29541175,2.04188923,False,597
100,8,2,coucou,11,2021-11-29T14:04:23.250Z,gomot_a.0073.eq.wav,0,19,9165.73383021,-3.49192457,False,597
100,8,2,coucou,11,2021-11-29T14:04:23.250Z,gomot_a.0073.eq.wav,0,20,10639.78260555,-2.68561067,False,597
100,8,2,coucou,11,2021-11-29T14:04:23.250Z,gomot_a.0073.eq.wav,0,21,12334.07042541,-4.02711132,False,597
100,8,2,coucou,11,2021-11-29T14:04:23.250Z,gomot_a.0073.eq.wav,0,22,14281.50341712,0.48848061,False,597
100,8,2,coucou,11,2021-11-29T14:04:23.250Z,gomot_a.0073.eq.wav,0,23,16519.90424416,0.73967821,False,597
100,8,2,coucou,11,2021-11-29T14:04:23.250Z,gomot_a.0073.eq.wav,0,24,19092.74669051,4.07498859,False,597
100,8,2,coucou,11,2021-11-29T14:04:23.250Z,gomot_a.0073.eq.wav,0,25,22050.00000000,0.75369588,False,597
100,8,2,coucou,11,2021-11-29T14:04:23.250Z,gomot_a.0057.eq.wav,1,0,0.00000000,-1.31866799,True,597
100,8,2,coucou,11,2021-11-29T14:04:23.250Z,gomot_a.0057.eq.wav,1,1,104.58767290,-4.67206283,True,597
100,8,2,coucou,11,2021-11-29T14:04:23.250Z,gomot_a.0057.eq.wav,1,2,224.80189054,3.78068608,True,597
100,8,2,coucou,11,2021-11-29T14:04:23.250Z,gomot_a.0057.eq.wav,1,3,362.97743001,0.88056187,True,597
100,8,2,coucou,11,2021-11-29T14:04:23.250Z,gomot_a.0057.eq.wav,1,4,521.79790965,-0.88913321,True,597
100,8,2,coucou,11,2021-11-29T14:04:23.250Z,gomot_a.0057.eq.wav,1,5,704.34790983,-3.75880265,True,597
100,8,2,coucou,11,2021-11-29T14:04:23.250Z,gomot_a.0057.eq.wav,1,6,914.17288101,-0.42502400,True,597
100,8,2,coucou,11,2021-11-29T14:04:23.250Z,gomot_a.0057.eq.wav,1,7,1155.34800284,1.48077199,True,597
100,8,2,coucou,11,2021-11-29T14:04:23.250Z,gomot_a.0057.eq.wav,1,8,1432.55733147,-2.39773282,True,597
100,8,2,coucou,11,2021-11-29T14:04:23.250Z,gomot_a.0057.eq.wav,1,9,1751.18477235,1.09734430,True,597
100,8,2,coucou,11,2021-11-29T14:04:23.250Z,gomot_a.0057.eq.wav,1,10,2117.41864548,3.39640501,True,597
100,8,2,coucou,11,2021-11-29T14:04:23.250Z,gomot_a.0057.eq.wav,1,11,2538.37187364,-0.76817746,True,597
100,8,2,coucou,11,2021-11-29T14:04:23.250Z,gomot_a.0057.eq.wav,1,12,3022.22012828,2.01923642,True,597
100,8,2,coucou,11,2021-11-29T14:04:23.250Z,gomot_a.0057.eq.wav,1,13,3578.36061576,0.30642058,True,597
100,8,2,coucou,11,2021-11-29T14:04:23.250Z,gomot_a.0057.eq.wav,1,14,4217.59458808,0.96479150,True,597
100,8,2,coucou,11,2021-11-29T14:04:23.250Z,gomot_a.0057.eq.wav,1,15,4952.33712269,3.28654031,True,597
100,8,2,coucou,11,2021-11-29T14:04:23.250Z,gomot_a.0057.eq.wav,1,16,5796.85824570,3.28744902,True,597
100,8,2,coucou,11,2021-11-29T14:04:23.250Z,gomot_a.0057.eq.wav,1,17,6767.56008152,-0.09270868,True,597
100,8,2,coucou,11,2021-11-29T14:04:23.250Z,gomot_a.0057.eq.wav,1,18,7883.29541175,-2.39822423,True,597
100,8,2,coucou,11,2021-11-29T14:04:23.250Z,gomot_a.0057.eq.wav,1,19,9165.73383021,3.96711721,True,597
100,8,2,coucou,11,2021-11-29T14:04:23.250Z,gomot_a.0057.eq.wav,1,20,10639.78260555,-1.34944338,True,597
100,8,2,coucou,11,2021-11-29T14:04:23.250Z,gomot_a.0057.eq.wav,1,21,12334.07042541,-2.05962860,True,597
100,8,2,coucou,11,2021-11-29T14:04:23.250Z,gomot_a.0057.eq.wav,1,22,14281.50341712,-0.95738443,True,597
100,8,2,coucou,11,2021-11-29T14:04:23.250Z,gomot_a.0057.eq.wav,1,23,16519.90424416,-2.76412123,True,597
100,8,2,coucou,11,2021-11-29T14:04:23.250Z,gomot_a.0057.eq.wav,1,24,19092.74669051,0.73216704,True,597
100,8,2,coucou,11,2021-11-29T14:04:23.250Z,gomot_a.0057.eq.wav,1,25,22050.00000000,1.07900904,True,597
100,9,3,coucou,11,2021-11-29T14:04:23.250Z,gomot_a.0015.eq.wav,0,0,0.00000000,-0.27163483,True,449
100,9,3,coucou,11,2021-11-29T14:04:23.250Z,gomot_a.0015.eq.wav,0,1,104.58767290,0.14950406,True,449
100,9,3,coucou,11,2021-11-29T14:04:23.250Z,gomot_a.0015.eq.wav,0,2,224.80189054,2.53450768,True,449
100,9,3,coucou,11,2021-11-29T14:04:23.250Z,gomot_a.0015.eq.wav,0,3,362.97743001,3.55528357,True,449
100,9,3,coucou,11,2021-11-29T14:04:23.250Z,gomot_a.0015.eq.wav,0,4,521.79790965,-0.12821208,True,449
100,9,3,coucou,11,2021-11-29T14:04:23.250Z,gomot_a.0015.eq.wav,0,5,704.34790983,0.84110052,True,449
100,9,3,coucou,11,2021-11-29T14:04:23.250Z,gomot_a.0015.eq.wav,0,6,914.17288101,0.58007630,True,449
100,9,3,coucou,11,2021-11-29T14:04:23.250Z,gomot_a.0015.eq.wav,0,7,1155.34800284,-4.36902744,True,449
100,9,3,coucou,11,2021-11-29T14:04:23.250Z,gomot_a.0015.eq.wav,0,8,1432.55733147,-4.05698557,True,449
100,9,3,coucou,11,2021-11-29T14:04:23.250Z,gomot_a.0015.eq.wav,0,9,1751.18477235,2.24186292,True,449
100,9,3,coucou,11,2021-11-29T14:04:23.250Z,gomot_a.0015.eq.wav,0,10,2117.41864548,-4.83489611,True,449
100,9,3,coucou,11,2021-11-29T14:04:23.250Z,gomot_a.0015.eq.wav,0,11,2538.37187364,-2.81282801,True,449
100,9,3,coucou,11,2021-11-29T14:04:23.250Z,gomot_a.0015.eq.wav,0,12,3022.22012828,-0.37528951,True,449
100,9,3,coucou,11,2021-11-29T14:04:23.250Z,gomot_a.0015.eq.wav,0,13,3578.36061576,2.50684892,True,449
100,9,3,coucou,11,2021-11-29T14:04:23.250Z,gomot_a.0015.eq.wav,0,14,4217.59458808,2.25554555,True,449
100,9,3,coucou,11,2021-11-29T14:04:23.250Z,gomot_a.0015.eq.wav,0,15,4952.33712269,-3.28738348,True,449
100,9,3,coucou,11,2021-11-29T14:04:23.250Z,gomot_a.0015.eq.wav,0,16,5796.85824570,4.64214607,True,449
100,9,3,coucou,11,2021-11-29T14:04:23.250Z,gomot_a.0015.eq.wav,0,17,6767.56008152,1.40810172,True,449
100,9,3,coucou,11,2021-11-29T14:04:23.250Z,gomot_a.0015.eq.wav,0,18,7883.29541175,-1.92096956,True,449
100,9,3,coucou,11,2021-11-29T14:04:23.250Z,gomot_a.0015.eq.wav,0,19,9165.73383021,-1.91337113,True,449
100,9,3,coucou,11,2021-11-29T14:04:23.250Z,gomot_a.0015.eq.wav,0,20,10639.78260555,-2.64440286,True,449
100,9,3,coucou,11,2021-11-29T14:04:23.250Z,gomot_a.0015.eq.wav,0,21,12334.07042541,2.38363847,True,449
100,9,3,coucou,11,2021-11-29T14:04:23.250Z,gomot_a.0015.eq.wav,0,22,14281.50341712,2.64075062,True,449
100,9,3,coucou,11,2021-11-29T14:04:23.250Z,gomot_a.0015.eq.wav,0,23,16519.90424416,2.64128927,True,449
100,9,3,coucou,11,2021-11-29T14:04:23.250Z,gomot_a.0015.eq.wav,0,24,19092.74669051,-0.52220668,True,449
100,9,3,coucou,11,2021-11-29T14:04:23.250Z,gomot_a.0015.eq.wav,0,25,22050.00000000,3.51432133,True,449
100,9,3,coucou,11,2021-11-29T14:04:23.250Z,gomot_a.0014.eq.wav,1,0,0.00000000,-2.34037570,False,449
100,9,3,coucou,11,2021-11-29T14:04:23.250Z,gomot_a.0014.eq.wav,1,1,104.58767290,4.98806250,False,449
100,9,3,coucou,11,2021-11-29T14:04:23.250Z,gomot_a.0014.eq.wav,1,2,224.80189054,-3.74871725,False,449
100,9,3,coucou,11,2021-11-29T14:04:23.250Z,gomot_a.0014.eq.wav,1,3,362.97743001,0.75287904,False,449
100,9,3,coucou,11,2021-11-29T14:04:23.250Z,gomot_a.0014.eq.wav,1,4,521.79790965,0.48929820,False,449
100,9,3,coucou,11,2021-11-29T14:04:23.250Z,gomot_a.0014.eq.wav,1,5,704.34790983,-0.16334447,False,449
100,9,3,coucou,11,2021-11-29T14:04:23.250Z,gomot_a.0014.eq.wav,1,6,914.17288101,2.26119480,False,449
100,9,3,coucou,11,2021-11-29T14:04:23.250Z,gomot_a.0014.eq.wav,1,7,1155.34800284,4.74075250,False,449
100,9,3,coucou,11,2021-11-29T14:04:23.250Z,gomot_a.0014.eq.wav,1,8,1432.55733147,3.19797381,False,449
100,9,3,coucou,11,2021-11-29T14:04:23.250Z,gomot_a.0014.eq.wav,1,9,1751.18477235,0.78873227,False,449
100,9,3,coucou,11,2021-11-29T14:04:23.250Z,gomot_a.0014.eq.wav,1,10,2117.41864548,-1.01208948,False,449
100,9,3,coucou,11,2021-11-29T14:04:23.250Z,gomot_a.0014.eq.wav,1,11,2538.37187364,-0.35758749,False,449
100,9,3,coucou,11,2021-11-29T14:04:23.250Z,gomot_a.0014.eq.wav,1,12,3022.22012828,-2.66828481,False,449
100,9,3,coucou,11,2021-11-29T14:04:23.250Z,gomot_a.0014.eq.wav,1,13,3578.36061576,0.54041368,False,449
100,9,3,coucou,11,2021-11-29T14:04:23.250Z,gomot_a.0014.eq.wav,1,14,4217.59458808,1.06190200,False,449
100,9,3,coucou,11,2021-11-29T14:04:23.250Z,gomot_a.0014.eq.wav,1,15,4952.33712269,3.94768985,False,449
100,9,3,coucou,11,2021-11-29T14:04:23.250Z,gomot_a.0014.eq.wav,1,16,5796.85824570,4.87768080,False,449
100,9,3,coucou,11,2021-11-29T14:04:23.250Z,gomot_a.0014.eq.wav,1,17,6767.56008152,3.41737702,False,449
100,9,3,coucou,11,2021-11-29T14:04:23.250Z,gomot_a.0014.eq.wav,1,18,7883.29541175,1.01658447,False,449
100,9,3,coucou,11,2021-11-29T14:04:23.250Z,gomot_a.0014.eq.wav,1,19,9165.73383021,-0.04927484,False,449
100,9,3,coucou,11,2021-11-29T14:04:23.250Z,gomot_a.0014.eq.wav,1,20,10639.78260555,-1.11159762,False,449
100,9,3,coucou,11,2021-11-29T14:04:23.250Z,gomot_a.0014.eq.wav,1,21,12334.07042541,-2.39319177,False,449
100,9,3,coucou,11,2021-11-29T14:04:23.250Z,gomot_a.0014.eq.wav,1,22,14281.50341712,2.92813613,False,449
100,9,3,coucou,11,2021-11-29T14:04:23.250Z,gomot_a.0014.eq.wav,1,23,16519.90424416,-1.53954881,False,449
100,9,3,coucou,11,2021-11-29T14:04:23.250Z,gomot_a.0014.eq.wav,1,24,19092.74669051,3.15470962,False,449
100,9,3,coucou,11,2021-11-29T14:04:23.250Z,gomot_a.0014.eq.wav,1,25,22050.00000000,-4.54208364,False,449
100,10,3,coucou,11,2021-11-29T14:04:23.250Z,gomot_a.0008.eq.wav,0,0,0.00000000,-3.97306523,True,904
100,10,3,coucou,11,2021-11-29T14:04:23.250Z,gomot_a.0008.eq.wav,0,1,104.58767290,-2.00906891,True,904
100,10,3,coucou,11,2021-11-29T14:04:23.250Z,gomot_a.0008.eq.wav,0,2,224.80189054,0.98478158,True,904
100,10,3,coucou,11,2021-11-29T14:04:23.250Z,gomot_a.0008.eq.wav,0,3,362.97743001,-1.44563179,True,904
100,10,3,coucou,11,2021-11-29T14:04:23.250Z,gomot_a.0008.eq.wav,0,4,521.79790965,-0.56676753,True,904
100,10,3,coucou,11,2021-11-29T14:04:23.250Z,gomot_a.0008.eq.wav,0,5,704.34790983,4.77407612,True,904
100,10,3,coucou,11,2021-11-29T14:04:23.250Z,gomot_a.0008.eq.wav,0,6,914.17288101,3.07262866,True,904
100,10,3,coucou,11,2021-11-29T14:04:23.250Z,gomot_a.0008.eq.wav,0,7,1155.34800284,3.05502310,True,904
100,10,3,coucou,11,2021-11-29T14:04:23.250Z,gomot_a.0008.eq.wav,0,8,1432.55733147,-3.89900967,True,904
100,10,3,coucou,11,2021-11-29T14:04:23.250Z,gomot_a.0008.eq.wav,0,9,1751.18477235,0.65708411,True,904
100,10,3,coucou,11,2021-11-29T14:04:23.250Z,gomot_a.0008.eq.wav,0,10,2117.41864548,0.41127230,True,904
100,10,3,coucou,11,2021-11-29T14:04:23.250Z,gomot_a.0008.eq.wav,0,11,2538.37187364,-0.47891374,True,904
100,10,3,coucou,11,2021-11-29T14:04:23.250Z,gomot_a.0008.eq.wav,0,12,3022.22012828,-0.74453010,True,904
100,10,3,coucou,11,2021-11-29T14:04:23.250Z,gomot_a.0008.eq.wav,0,13,3578.36061576,3.75526281,True,904
100,10,3,coucou,11,2021-11-29T14:04:23.250Z,gomot_a.0008.eq.wav,0,14,4217.59458808,-0.41224653,True,904
100,10,3,coucou,11,2021-11-29T14:04:23.250Z,gomot_a.0008.eq.wav,0,15,4952.33712269,1.07170172,True,904
100,10,3,coucou,11,2021-11-29T14:04:23.250Z,gomot_a.0008.eq.wav,0,16,5796.85824570,-0.27051555,True,904
100,10,3,coucou,11,2021-11-29T14:04:23.250Z,gomot_a.0008.eq.wav,0,17,6767.56008152,3.19766361,True,904
100,10,3,coucou,11,2021-11-29T14:04:23.250Z,gomot_a.0008.eq.wav,0,18,7883.29541175,1.18516506,True,904
100,10,3,coucou,11,2021-11-29T14:04:23.250Z,gomot_a.0008.eq.wav,0,19,9165.73383021,-4.52521201,True,904
100,10,3,coucou,11,2021-11-29T14:04:23.250Z,gomot_a.0008.eq.wav,0,20,10639.78260555,-2.13051961,True,904
100,10,3,coucou,11,2021-11-29T14:04:23.250Z,gomot_a.0008.eq.wav,0,21,12334.07042541,1.42276156,True,904
100,10,3,coucou,11,2021-11-29T14:04:23.250Z,gomot_a.0008.eq.wav,0,22,14281.50341712,3.02570615,True,904
100,10,3,coucou,11,2021-11-29T14:04:23.250Z,gomot_a.0008.eq.wav,0,23,16519.90424416,-3.97755435,True,904
100,10,3,coucou,11,2021-11-29T14:04:23.250Z,gomot_a.0008.eq.wav,0,24,19092.74669051,0.71013413,True,904
100,10,3,coucou,11,2021-11-29T14:04:23.250Z,gomot_a.0008.eq.wav,0,25,22050.00000000,1.59770815,True,904
100,10,3,coucou,11,2021-11-29T14:04:23.250Z,gomot_a.0029.eq.wav,1,0,0.00000000,1.21816501,False,904
100,10,3,coucou,11,2021-11-29T14:04:23.250Z,gomot_a.0029.eq.wav,1,1,104.58767290,1.08267020,False,904
100,10,3,coucou,11,2021-11-29T14:04:23.250Z,gomot_a.0029.eq.wav,1,2,224.80189054,1.28772206,False,904
100,10,3,coucou,11,2021-11-29T14:04:23.250Z,gomot_a.0029.eq.wav,1,3,362.97743001,1.40729758,False,904
100,10,3,coucou,11,2021-11-29T14:04:23.250Z,gomot_a.0029.eq.wav,1,4,521.79790965,-3.20043051,False,904
100,10,3,coucou,11,2021-11-29T14:04:23.250Z,gomot_a.0029.eq.wav,1,5,704.34790983,2.79748982,False,904
100,10,3,coucou,11,2021-11-29T14:04:23.250Z,gomot_a.0029.eq.wav,1,6,914.17288101,3.52226146,False,904
100,10,3,coucou,11,2021-11-29T14:04:23.250Z,gomot_a.0029.eq.wav,1,7,1155.34800284,-2.16834895,False,904
100,10,3,coucou,11,2021-11-29T14:04:23.250Z,gomot_a.0029.eq.wav,1,8,1432.55733147,-3.82348878,False,904
100,10,3,coucou,11,2021-11-29T14:04:23.250Z,gomot_a.0029.eq.wav,1,9,1751.18477235,2.53152470,False,904
100,10,3,coucou,11,2021-11-29T14:04:23.250Z,gomot_a.0029.eq.wav,1,10,2117.41864548,4.42532900,False,904
100,10,3,coucou,11,2021-11-29T14:04:23.250Z,gomot_a.0029.eq.wav,1,11,2538.37187364,1.87416383,False,904
100,10,3,coucou,11,2021-11-29T14:04:23.250Z,gomot_a.0029.eq.wav,1,12,3022.22012828,2.78695143,False,904
100,10,3,coucou,11,2021-11-29T14:04:23.250Z,gomot_a.0029.eq.wav,1,13,3578.36061576,-1.62046464,False,904
100,10,3,coucou,11,2021-11-29T14:04:23.250Z,gomot_a.0029.eq.wav,1,14,4217.59458808,0.39865427,False,904
100,10,3,coucou,11,2021-11-29T14:04:23.250Z,gomot_a.0029.eq.wav,1,15,4952.33712269,-0.98513032,False,904
100,10,3,coucou,11,2021-11-29T14:04:23.250Z,gomot_a.0029.eq.wav,1,16,5796.85824570,3.48046181,False,904
100,10,3,coucou,11,2021-11-29T14:04:23.250Z,gomot_a.0029.eq.wav,1,17,6767.56008152,0.93900639,False,904
100,10,3,coucou,11,2021-11-29T14:04:23.250Z,gomot_a.0029.eq.wav,1,18,7883.29541175,-3.18346998,False,904
100,10,3,coucou,11,2021-11-29T14:04:23.250Z,gomot_a.0029.eq.wav,1,19,9165.73383021,4.38247035,False,904
100,10,3,coucou,11,2021-11-29T14:04:23.250Z,gomot_a.0029.eq.wav,1,20,10639.78260555,4.15778158,False,904
100,10,3,coucou,11,2021-11-29T14:04:23.250Z,gomot_a.0029.eq.wav,1,21,12334.07042541,3.11035079,False,904
100,10,3,coucou,11,2021-11-29T14:04:23.250Z,gomot_a.0029.eq.wav,1,22,14281.50341712,4.72179113,False,904
100,10,3,coucou,11,2021-11-29T14:04:23.250Z,gomot_a.0029.eq.wav,1,23,16519.90424416,1.62414786,False,904
100,10,3,coucou,11,2021-11-29T14:04:23.250Z,gomot_a.0029.eq.wav,1,24,19092.74669051,-2.19736742,False,904
100,10,3,coucou,11,2021-11-29T14:04:23.250Z,gomot_a.0029.eq.wav,1,25,22050.00000000,-2.62167848,False,904
100,11,3,coucou,11,2021-11-29T14:04:23.250Z,gomot_a.0022.eq.wav,0,0,0.00000000,3.71285157,True,1060
100,11,3,coucou,11,2021-11-29T14:04:23.250Z,gomot_a.0022.eq.wav,0,1,104.58767290,-1.30205024,True,1060
100,11,3,coucou,11,2021-11-29T14:04:23.250Z,gomot_a.0022.eq.wav,0,2,224.80189054,-4.21852993,True,1060
100,11,3,coucou,11,2021-11-29T14:04:23.250Z,gomot_a.0022.eq.wav,0,3,362.97743001,-2.66767259,True,1060
100,11,3,coucou,11,2021-11-29T14:04:23.250Z,gomot_a.0022.eq.wav,0,4,521.79790965,-3.70052448,True,1060
100,11,3,coucou,11,2021-11-29T14:04:23.250Z,gomot_a.0022.eq.wav,0,5,704.34790983,1.61209468,True,1060
100,11,3,coucou,11,2021-11-29T14:04:23.250Z,gomot_a.0022.eq.wav,0,6,914.17288101,2.48963422,True,1060
100,11,3,coucou,11,2021-11-29T14:04:23.250Z,gomot_a.0022.eq.wav,0,7,1155.34800284,-3.20961613,True,1060
100,11,3,coucou,11,2021-11-29T14:04:23.250Z,gomot_a.0022.eq.wav,0,8,1432.55733147,-4.80333882,True,1060
100,11,3,coucou,11,2021-11-29T14:04:23.250Z,gomot_a.0022.eq.wav,0,9,1751.18477235,1.75358853,True,1060
100,11,3,coucou,11,2021-11-29T14:04:23.250Z,gomot_a.0022.eq.wav,0,10,2117.41864548,2.77083314,True,1060
100,11,3,coucou,11,2021-11-29T14:04:23.250Z,gomot_a.0022.eq.wav,0,11,2538.37187364,-3.66411514,True,1060
100,11,3,coucou,11,2021-11-29T14:04:23.250Z,gomot_a.0022.eq.wav,0,12,3022.22012828,1.24879386,True,1060
100,11,3,coucou,11,2021-11-29T14:04:23.250Z,gomot_a.0022.eq.wav,0,13,3578.36061576,1.81159616,True,1060
100,11,3,coucou,11,2021-11-29T14:04:23.250Z,gomot_a.0022.eq.wav,0,14,4217.59458808,1.46992240,True,1060
100,11,3,coucou,11,2021-11-29T14:04:23.250Z,gomot_a.0022.eq.wav,0,15,4952.33712269,-0.15903167,True,1060
100,11,3,coucou,11,2021-11-29T14:04:23.250Z,gomot_a.0022.eq.wav,0,16,5796.85824570,2.63007585,True,1060
100,11,3,coucou,11,2021-11-29T14:04:23.250Z,gomot_a.0022.eq.wav,0,17,6767.56008152,1.62885913,True,1060
100,11,3,coucou,11,2021-11-29T14:04:23.250Z,gomot_a.0022.eq.wav,0,18,7883.29541175,1.29750272,True,1060
100,11,3,coucou,11,2021-11-29T14:04:23.250Z,gomot_a.0022.eq.wav,0,19,9165.73383021,1.30835662,True,1060
100,11,3,coucou,11,2021-11-29T14:04:23.250Z,gomot_a.0022.eq.wav,0,20,10639.78260555,3.64067320,True,1060
100,11,3,coucou,11,2021-11-29T14:04:23.250Z,gomot_a.0022.eq.wav,0,21,12334.07042541,-0.87050373,True,1060
100,11,3,coucou,11,2021-11-29T14:04:23.250Z,gomot_a.0022.eq.wav,0,22,14281.50341712,1.85931036,True,1060
100,11,3,coucou,11,2021-11-29T14:04:23.250Z,gomot_a.0022.eq.wav,0,23,16519.90424416,-3.86463211,True,1060
100,11,3,coucou,11,2021-11-29T14:04:23.250Z,gomot_a.0022.eq.wav,0,24,19092.74669051,-1.52646148,True,1060
100,11,3,coucou,11,2021-11-29T14:04:23.250Z,gomot_a.0022.eq.wav,0,25,22050.00000000,-1.60972720,True,1060
100,11,3,coucou,11,2021-11-29T14:04:23.250Z,gomot_a.0007.eq.wav,1,0,0.00000000,-0.83064358,False,1060
100,11,3,coucou,11,2021-11-29T14:04:23.250Z,gomot_a.0007.eq.wav,1,1,104.58767290,0.17927812,False,1060
100,11,3,coucou,11,2021-11-29T14:04:23.250Z,gomot_a.0007.eq.wav,1,2,224.80189054,4.82177982,False,1060
100,11,3,coucou,11,2021-11-29T14:04:23.250Z,gomot_a.0007.eq.wav,1,3,362.97743001,-2.97894556,False,1060
100,11,3,coucou,11,2021-11-29T14:04:23.250Z,gomot_a.0007.eq.wav,1,4,521.79790965,2.63933577,False,1060
100,11,3,coucou,11,2021-11-29T14:04:23.250Z,gomot_a.0007.eq.wav,1,5,704.34790983,3.73360574,False,1060
100,11,3,coucou,11,2021-11-29T14:04:23.250Z,gomot_a.0007.eq.wav,1,6,914.17288101,-2.46278355,False,1060
100,11,3,coucou,11,2021-11-29T14:04:23.250Z,gomot_a.0007.eq.wav,1,7,1155.34800284,4.88329897,False,1060
100,11,3,coucou,11,2021-11-29T14:04:23.250Z,gomot_a.0007.eq.wav,1,8,1432.55733147,-1.36944959,False,1060
100,11,3,coucou,11,2021-11-29T14:04:23.250Z,gomot_a.0007.eq.wav,1,9,1751.18477235,1.55311798,False,1060
100,11,3,coucou,11,2021-11-29T14:04:23.250Z,gomot_a.0007.eq.wav,1,10,2117.41864548,2.90404319,False,1060
100,11,3,coucou,11,2021-11-29T14:04:23.250Z,gomot_a.0007.eq.wav,1,11,2538.37187364,4.90856035,False,1060
100,11,3,coucou,11,2021-11-29T14:04:23.250Z,gomot_a.0007.eq.wav,1,12,3022.22012828,1.84485169,False,1060
100,11,3,coucou,11,2021-11-29T14:04:23.250Z,gomot_a.0007.eq.wav,1,13,3578.36061576,2.03562731,False,1060
100,11,3,coucou,11,2021-11-29T14:04:23.250Z,gomot_a.0007.eq.wav,1,14,4217.59458808,-3.68451812,False,1060
100,11,3,coucou,11,2021-11-29T14:04:23.250Z,gomot_a.0007.eq.wav,1,15,4952.33712269,-1.65239714,False,1060
100,11,3,coucou,11,2021-11-29T14:04:23.250Z,gomot_a.0007.eq.wav,1,16,5796.85824570,2.56135058,False,1060
100,11,3,coucou,11,2021-11-29T14:04:23.250Z,gomot_a.0007.eq.wav,1,17,6767.56008152,-4.19475264,False,1060
100,11,3,coucou,11,2021-11-29T14:04:23.250Z,gomot_a.0007.eq.wav,1,18,7883.29541175,1.31216891,False,1060
100,11,3,coucou,11,2021-11-29T14:04:23.250Z,gomot_a.0007.eq.wav,1,19,9165.73383021,-0.96922211,False,1060
100,11,3,coucou,11,2021-11-29T14:04:23.250Z,gomot_a.0007.eq.wav,1,20,10639.78260555,3.02915438,False,1060
100,11,3,coucou,11,2021-11-29T14:04:23.250Z,gomot_a.0007.eq.wav,1,21,12334.07042541,4.18133112,False,1060
100,11,3,coucou,11,2021-11-29T14:04:23.250Z,gomot_a.0007.eq.wav,1,22,14281.50341712,-4.63466568,False,1060
100,11,3,coucou,11,2021-11-29T14:04:23.250Z,gomot_a.0007.eq.wav,1,23,16519.90424416,4.99824167,False,1060
100,11,3,coucou,11,2021-11-29T14:04:23.250Z,gomot_a.0007.eq.wav,1,24,19092.74669051,4.26485701,False,1060
100,11,3,coucou,11,2021-11-29T14:04:23.250Z,gomot_a.0007.eq.wav,1,25,22050.00000000,1.52722673,False,1060
100,12,4,coucou,11,2021-11-29T14:04:23.250Z,gomot_a.0015.eq.wav,0,0,0.00000000,-0.27163483,True,607
100,12,4,coucou,11,2021-11-29T14:04:23.250Z,gomot_a.0015.eq.wav,0,1,104.58767290,0.14950406,True,607
100,12,4,coucou,11,2021-11-29T14:04:23.250Z,gomot_a.0015.eq.wav,0,2,224.80189054,2.53450768,True,607
100,12,4,coucou,11,2021-11-29T14:04:23.250Z,gomot_a.0015.eq.wav,0,3,362.97743001,3.55528357,True,607
100,12,4,coucou,11,2021-11-29T14:04:23.250Z,gomot_a.0015.eq.wav,0,4,521.79790965,-0.12821208,True,607
100,12,4,coucou,11,2021-11-29T14:04:23.250Z,gomot_a.0015.eq.wav,0,5,704.34790983,0.84110052,True,607
100,12,4,coucou,11,2021-11-29T14:04:23.250Z,gomot_a.0015.eq.wav,0,6,914.17288101,0.58007630,True,607
100,12,4,coucou,11,2021-11-29T14:04:23.250Z,gomot_a.0015.eq.wav,0,7,1155.34800284,-4.36902744,True,607
100,12,4,coucou,11,2021-11-29T14:04:23.250Z,gomot_a.0015.eq.wav,0,8,1432.55733147,-4.05698557,True,607
100,12,4,coucou,11,2021-11-29T14:04:23.250Z,gomot_a.0015.eq.wav,0,9,1751.18477235,2.24186292,True,607
100,12,4,coucou,11,2021-11-29T14:04:23.250Z,gomot_a.0015.eq.wav,0,10,2117.41864548,-4.83489611,True,607
100,12,4,coucou,11,2021-11-29T14:04:23.250Z,gomot_a.0015.eq.wav,0,11,2538.37187364,-2.81282801,True,607
100,12,4,coucou,11,2021-11-29T14:04:23.250Z,gomot_a.0015.eq.wav,0,12,3022.22012828,-0.37528951,True,607
100,12,4,coucou,11,2021-11-29T14:04:23.250Z,gomot_a.0015.eq.wav,0,13,3578.36061576,2.50684892,True,607
100,12,4,coucou,11,2021-11-29T14:04:23.250Z,gomot_a.0015.eq.wav,0,14,4217.59458808,2.25554555,True,607
100,12,4,coucou,11,2021-11-29T14:04:23.250Z,gomot_a.0015.eq.wav,0,15,4952.33712269,-3.28738348,True,607
100,12,4,coucou,11,2021-11-29T14:04:23.250Z,gomot_a.0015.eq.wav,0,16,5796.85824570,4.64214607,True,607
100,12,4,coucou,11,2021-11-29T14:04:23.250Z,gomot_a.0015.eq.wav,0,17,6767.56008152,1.40810172,True,607
100,12,4,coucou,11,2021-11-29T14:04:23.250Z,gomot_a.0015.eq.wav,0,18,7883.29541175,-1.92096956,True,607
100,12,4,coucou,11,2021-11-29T14:04:23.250Z,gomot_a.0015.eq.wav,0,19,9165.73383021,-1.91337113,True,607
100,12,4,coucou,11,2021-11-29T14:04:23.250Z,gomot_a.0015.eq.wav,0,20,10639.78260555,-2.64440286,True,607
100,12,4,coucou,11,2021-11-29T14:04:23.250Z,gomot_a.0015.eq.wav,0,21,12334.07042541,2.38363847,True,607
100,12,4,coucou,11,2021-11-29T14:04:23.250Z,gomot_a.0015.eq.wav,0,22,14281.50341712,2.64075062,True,607
100,12,4,coucou,11,2021-11-29T14:04:23.250Z,gomot_a.0015.eq.wav,0,23,16519.90424416,2.64128927,True,607
100,12,4,coucou,11,2021-11-29T14:04:23.250Z,gomot_a.0015.eq.wav,0,24,19092.74669051,-0.52220668,True,607
100,12,4,coucou,11,2021-11-29T14:04:23.250Z,gomot_a.0015.eq.wav,0,25,22050.00000000,3.51432133,True,607
100,12,4,coucou,11,2021-11-29T14:04:23.250Z,gomot_a.0014.eq.wav,1,0,0.00000000,-2.34037570,False,607
100,12,4,coucou,11,2021-11-29T14:04:23.250Z,gomot_a.0014.eq.wav,1,1,104.58767290,4.98806250,False,607
100,12,4,coucou,11,2021-11-29T14:04:23.250Z,gomot_a.0014.eq.wav,1,2,224.80189054,-3.74871725,False,607
100,12,4,coucou,11,2021-11-29T14:04:23.250Z,gomot_a.0014.eq.wav,1,3,362.97743001,0.75287904,False,607
100,12,4,coucou,11,2021-11-29T14:04:23.250Z,gomot_a.0014.eq.wav,1,4,521.79790965,0.48929820,False,607
100,12,4,coucou,11,2021-11-29T14:04:23.250Z,gomot_a.0014.eq.wav,1,5,704.34790983,-0.16334447,False,607
100,12,4,coucou,11,2021-11-29T14:04:23.250Z,gomot_a.0014.eq.wav,1,6,914.17288101,2.26119480,False,607
100,12,4,coucou,11,2021-11-29T14:04:23.250Z,gomot_a.0014.eq.wav,1,7,1155.34800284,4.74075250,False,607
100,12,4,coucou,11,2021-11-29T14:04:23.250Z,gomot_a.0014.eq.wav,1,8,1432.55733147,3.19797381,False,607
100,12,4,coucou,11,2021-11-29T14:04:23.250Z,gomot_a.0014.eq.wav,1,9,1751.18477235,0.78873227,False,607
100,12,4,coucou,11,2021-11-29T14:04:23.250Z,gomot_a.0014.eq.wav,1,10,2117.41864548,-1.01208948,False,607
100,12,4,coucou,11,2021-11-29T14:04:23.250Z,gomot_a.0014.eq.wav,1,11,2538.37187364,-0.35758749,False,607
100,12,4,coucou,11,2021-11-29T14:04:23.250Z,gomot_a.0014.eq.wav,1,12,3022.22012828,-2.66828481,False,607
100,12,4,coucou,11,2021-11-29T14:04:23.250Z,gomot_a.0014.eq.wav,1,13,3578.36061576,0.54041368,False,607
100,12,4,coucou,11,2021-11-29T14:04:23.250Z,gomot_a.0014.eq.wav,1,14,4217.59458808,1.06190200,False,607
100,12,4,coucou,11,2021-11-29T14:04:23.250Z,gomot_a.0014.eq.wav,1,15,4952.33712269,3.94768985,False,607
100,12,4,coucou,11,2021-11-29T14:04:23.250Z,gomot_a.0014.eq.wav,1,16,5796.85824570,4.87768080,False,607
100,12,4,coucou,11,2021-11-29T14:04:23.250Z,gomot_a.0014.eq.wav,1,17,6767.56008152,3.41737702,False,607
100,12,4,coucou,11,2021-11-29T14:04:23.250Z,gomot_a.0014.eq.wav,1,18,7883.29541175,1.01658447,False,607
100,12,4,coucou,11,2021-11-29T14:04:23.250Z,gomot_a.0014.eq.wav,1,19,9165.73383021,-0.04927484,False,607
100,12,4,coucou,11,2021-11-29T14:04:23.250Z,gomot_a.0014.eq.wav,1,20,10639.78260555,-1.11159762,False,607
100,12,4,coucou,11,2021-11-29T14:04:23.250Z,gomot_a.0014.eq.wav,1,21,12334.07042541,-2.39319177,False,607
100,12,4,coucou,11,2021-11-29T14:04:23.250Z,gomot_a.0014.eq.wav,1,22,14281.50341712,2.92813613,False,607
100,12,4,coucou,11,2021-11-29T14:04:23.250Z,gomot_a.0014.eq.wav,1,23,16519.90424416,-1.53954881,False,607
100,12,4,coucou,11,2021-11-29T14:04:23.250Z,gomot_a.0014.eq.wav,1,24,19092.74669051,3.15470962,False,607
100,12,4,coucou,11,2021-11-29T14:04:23.250Z,gomot_a.0014.eq.wav,1,25,22050.00000000,-4.54208364,False,607
100,13,4,coucou,11,2021-11-29T14:04:23.250Z,gomot_a.0008.eq.wav,0,0,0.00000000,-3.97306523,False,1095
100,13,4,coucou,11,2021-11-29T14:04:23.250Z,gomot_a.0008.eq.wav,0,1,104.58767290,-2.00906891,False,1095
100,13,4,coucou,11,2021-11-29T14:04:23.250Z,gomot_a.0008.eq.wav,0,2,224.80189054,0.98478158,False,1095
100,13,4,coucou,11,2021-11-29T14:04:23.250Z,gomot_a.0008.eq.wav,0,3,362.97743001,-1.44563179,False,1095
100,13,4,coucou,11,2021-11-29T14:04:23.250Z,gomot_a.0008.eq.wav,0,4,521.79790965,-0.56676753,False,1095
100,13,4,coucou,11,2021-11-29T14:04:23.250Z,gomot_a.0008.eq.wav,0,5,704.34790983,4.77407612,False,1095
100,13,4,coucou,11,2021-11-29T14:04:23.250Z,gomot_a.0008.eq.wav,0,6,914.17288101,3.07262866,False,1095
100,13,4,coucou,11,2021-11-29T14:04:23.250Z,gomot_a.0008.eq.wav,0,7,1155.34800284,3.05502310,False,1095
100,13,4,coucou,11,2021-11-29T14:04:23.250Z,gomot_a.0008.eq.wav,0,8,1432.55733147,-3.89900967,False,1095
100,13,4,coucou,11,2021-11-29T14:04:23.250Z,gomot_a.0008.eq.wav,0,9,1751.18477235,0.65708411,False,1095
100,13,4,coucou,11,2021-11-29T14:04:23.250Z,gomot_a.0008.eq.wav,0,10,2117.41864548,0.41127230,False,1095
100,13,4,coucou,11,2021-11-29T14:04:23.250Z,gomot_a.0008.eq.wav,0,11,2538.37187364,-0.47891374,False,1095
100,13,4,coucou,11,2021-11-29T14:04:23.250Z,gomot_a.0008.eq.wav,0,12,3022.22012828,-0.74453010,False,1095
100,13,4,coucou,11,2021-11-29T14:04:23.250Z,gomot_a.0008.eq.wav,0,13,3578.36061576,3.75526281,False,1095
100,13,4,coucou,11,2021-11-29T14:04:23.250Z,gomot_a.0008.eq.wav,0,14,4217.59458808,-0.41224653,False,1095
100,13,4,coucou,11,2021-11-29T14:04:23.250Z,gomot_a.0008.eq.wav,0,15,4952.33712269,1.07170172,False,1095
100,13,4,coucou,11,2021-11-29T14:04:23.250Z,gomot_a.0008.eq.wav,0,16,5796.85824570,-0.27051555,False,1095
100,13,4,coucou,11,2021-11-29T14:04:23.250Z,gomot_a.0008.eq.wav,0,17,6767.56008152,3.19766361,False,1095
100,13,4,coucou,11,2021-11-29T14:04:23.250Z,gomot_a.0008.eq.wav,0,18,7883.29541175,1.18516506,False,1095
100,13,4,coucou,11,2021-11-29T14:04:23.250Z,gomot_a.0008.eq.wav,0,19,9165.73383021,-4.52521201,False,1095
100,13,4,coucou,11,2021-11-29T14:04:23.250Z,gomot_a.0008.eq.wav,0,20,10639.78260555,-2.13051961,False,1095
100,13,4,coucou,11,2021-11-29T14:04:23.250Z,gomot_a.0008.eq.wav,0,21,12334.07042541,1.42276156,False,1095
100,13,4,coucou,11,2021-11-29T14:04:23.250Z,gomot_a.0008.eq.wav,0,22,14281.50341712,3.02570615,False,1095
100,13,4,coucou,11,2021-11-29T14:04:23.250Z,gomot_a.0008.eq.wav,0,23,16519.90424416,-3.97755435,False,1095
100,13,4,coucou,11,2021-11-29T14:04:23.250Z,gomot_a.0008.eq.wav,0,24,19092.74669051,0.71013413,False,1095
100,13,4,coucou,11,2021-11-29T14:04:23.250Z,gomot_a.0008.eq.wav,0,25,22050.00000000,1.59770815,False,1095
100,13,4,coucou,11,2021-11-29T14:04:23.250Z,gomot_a.0029.eq.wav,1,0,0.00000000,1.21816501,True,1095
100,13,4,coucou,11,2021-11-29T14:04:23.250Z,gomot_a.0029.eq.wav,1,1,104.58767290,1.08267020,True,1095
100,13,4,coucou,11,2021-11-29T14:04:23.250Z,gomot_a.0029.eq.wav,1,2,224.80189054,1.28772206,True,1095
100,13,4,coucou,11,2021-11-29T14:04:23.250Z,gomot_a.0029.eq.wav,1,3,362.97743001,1.40729758,True,1095
100,13,4,coucou,11,2021-11-29T14:04:23.250Z,gomot_a.0029.eq.wav,1,4,521.79790965,-3.20043051,True,1095
100,13,4,coucou,11,2021-11-29T14:04:23.250Z,gomot_a.0029.eq.wav,1,5,704.34790983,2.79748982,True,1095
100,13,4,coucou,11,2021-11-29T14:04:23.250Z,gomot_a.0029.eq.wav,1,6,914.17288101,3.52226146,True,1095
100,13,4,coucou,11,2021-11-29T14:04:23.250Z,gomot_a.0029.eq.wav,1,7,1155.34800284,-2.16834895,True,1095
100,13,4,coucou,11,2021-11-29T14:04:23.250Z,gomot_a.0029.eq.wav,1,8,1432.55733147,-3.82348878,True,1095
100,13,4,coucou,11,2021-11-29T14:04:23.250Z,gomot_a.0029.eq.wav,1,9,1751.18477235,2.53152470,True,1095
100,13,4,coucou,11,2021-11-29T14:04:23.250Z,gomot_a.0029.eq.wav,1,10,2117.41864548,4.42532900,True,1095
100,13,4,coucou,11,2021-11-29T14:04:23.250Z,gomot_a.0029.eq.wav,1,11,2538.37187364,1.87416383,True,1095
100,13,4,coucou,11,2021-11-29T14:04:23.250Z,gomot_a.0029.eq.wav,1,12,3022.22012828,2.78695143,True,1095
100,13,4,coucou,11,2021-11-29T14:04:23.250Z,gomot_a.0029.eq.wav,1,13,3578.36061576,-1.62046464,True,1095
100,13,4,coucou,11,2021-11-29T14:04:23.250Z,gomot_a.0029.eq.wav,1,14,4217.59458808,0.39865427,True,1095
100,13,4,coucou,11,2021-11-29T14:04:23.250Z,gomot_a.0029.eq.wav,1,15,4952.33712269,-0.98513032,True,1095
100,13,4,coucou,11,2021-11-29T14:04:23.250Z,gomot_a.0029.eq.wav,1,16,5796.85824570,3.48046181,True,1095
100,13,4,coucou,11,2021-11-29T14:04:23.250Z,gomot_a.0029.eq.wav,1,17,6767.56008152,0.93900639,True,1095
100,13,4,coucou,11,2021-11-29T14:04:23.250Z,gomot_a.0029.eq.wav,1,18,7883.29541175,-3.18346998,True,1095
100,13,4,coucou,11,2021-11-29T14:04:23.250Z,gomot_a.0029.eq.wav,1,19,9165.73383021,4.38247035,True,1095
100,13,4,coucou,11,2021-11-29T14:04:23.250Z,gomot_a.0029.eq.wav,1,20,10639.78260555,4.15778158,True,1095
100,13,4,coucou,11,2021-11-29T14:04:23.250Z,gomot_a.0029.eq.wav,1,21,12334.07042541,3.11035079,True,1095
100,13,4,coucou,11,2021-11-29T14:04:23.250Z,gomot_a.0029.eq.wav,1,22,14281.50341712,4.72179113,True,1095
100,13,4,coucou,11,2021-11-29T14:04:23.250Z,gomot_a.0029.eq.wav,1,23,16519.90424416,1.62414786,True,1095
100,13,4,coucou,11,2021-11-29T14:04:23.250Z,gomot_a.0029.eq.wav,1,24,19092.74669051,-2.19736742,True,1095
100,13,4,coucou,11,2021-11-29T14:04:23.250Z,gomot_a.0029.eq.wav,1,25,22050.00000000,-2.62167848,True,1095
100,14,4,coucou,11,2021-11-29T14:04:23.250Z,gomot_a.0022.eq.wav,0,0,0.00000000,3.71285157,False,899
100,14,4,coucou,11,2021-11-29T14:04:23.250Z,gomot_a.0022.eq.wav,0,1,104.58767290,-1.30205024,False,899
100,14,4,coucou,11,2021-11-29T14:04:23.250Z,gomot_a.0022.eq.wav,0,2,224.80189054,-4.21852993,False,899
100,14,4,coucou,11,2021-11-29T14:04:23.250Z,gomot_a.0022.eq.wav,0,3,362.97743001,-2.66767259,False,899
100,14,4,coucou,11,2021-11-29T14:04:23.250Z,gomot_a.0022.eq.wav,0,4,521.79790965,-3.70052448,False,899
100,14,4,coucou,11,2021-11-29T14:04:23.250Z,gomot_a.0022.eq.wav,0,5,704.34790983,1.61209468,False,899
100,14,4,coucou,11,2021-11-29T14:04:23.250Z,gomot_a.0022.eq.wav,0,6,914.17288101,2.48963422,False,899
100,14,4,coucou,11,2021-11-29T14:04:23.250Z,gomot_a.0022.eq.wav,0,7,1155.34800284,-3.20961613,False,899
100,14,4,coucou,11,2021-11-29T14:04:23.250Z,gomot_a.0022.eq.wav,0,8,1432.55733147,-4.80333882,False,899
100,14,4,coucou,11,2021-11-29T14:04:23.250Z,gomot_a.0022.eq.wav,0,9,1751.18477235,1.75358853,False,899
100,14,4,coucou,11,2021-11-29T14:04:23.250Z,gomot_a.0022.eq.wav,0,10,2117.41864548,2.77083314,False,899
100,14,4,coucou,11,2021-11-29T14:04:23.250Z,gomot_a.0022.eq.wav,0,11,2538.37187364,-3.66411514,False,899
100,14,4,coucou,11,2021-11-29T14:04:23.250Z,gomot_a.0022.eq.wav,0,12,3022.22012828,1.24879386,False,899
100,14,4,coucou,11,2021-11-29T14:04:23.250Z,gomot_a.0022.eq.wav,0,13,3578.36061576,1.81159616,False,899
100,14,4,coucou,11,2021-11-29T14:04:23.250Z,gomot_a.0022.eq.wav,0,14,4217.59458808,1.46992240,False,899
100,14,4,coucou,11,2021-11-29T14:04:23.250Z,gomot_a.0022.eq.wav,0,15,4952.33712269,-0.15903167,False,899
100,14,4,coucou,11,2021-11-29T14:04:23.250Z,gomot_a.0022.eq.wav,0,16,5796.85824570,2.63007585,False,899
100,14,4,coucou,11,2021-11-29T14:04:23.250Z,gomot_a.0022.eq.wav,0,17,6767.56008152,1.62885913,False,899
100,14,4,coucou,11,2021-11-29T14:04:23.250Z,gomot_a.0022.eq.wav,0,18,7883.29541175,1.29750272,False,899
100,14,4,coucou,11,2021-11-29T14:04:23.250Z,gomot_a.0022.eq.wav,0,19,9165.73383021,1.30835662,False,899
100,14,4,coucou,11,2021-11-29T14:04:23.250Z,gomot_a.0022.eq.wav,0,20,10639.78260555,3.64067320,False,899
100,14,4,coucou,11,2021-11-29T14:04:23.250Z,gomot_a.0022.eq.wav,0,21,12334.07042541,-0.87050373,False,899
100,14,4,coucou,11,2021-11-29T14:04:23.250Z,gomot_a.0022.eq.wav,0,22,14281.50341712,1.85931036,False,899
100,14,4,coucou,11,2021-11-29T14:04:23.250Z,gomot_a.0022.eq.wav,0,23,16519.90424416,-3.86463211,False,899
100,14,4,coucou,11,2021-11-29T14:04:23.250Z,gomot_a.0022.eq.wav,0,24,19092.74669051,-1.52646148,False,899
100,14,4,coucou,11,2021-11-29T14:04:23.250Z,gomot_a.0022.eq.wav,0,25,22050.00000000,-1.60972720,False,899
100,14,4,coucou,11,2021-11-29T14:04:23.250Z,gomot_a.0007.eq.wav,1,0,0.00000000,-0.83064358,True,899
100,14,4,coucou,11,2021-11-29T14:04:23.250Z,gomot_a.0007.eq.wav,1,1,104.58767290,0.17927812,True,899
100,14,4,coucou,11,2021-11-29T14:04:23.250Z,gomot_a.0007.eq.wav,1,2,224.80189054,4.82177982,True,899
100,14,4,coucou,11,2021-11-29T14:04:23.250Z,gomot_a.0007.eq.wav,1,3,362.97743001,-2.97894556,True,899
100,14,4,coucou,11,2021-11-29T14:04:23.250Z,gomot_a.0007.eq.wav,1,4,521.79790965,2.63933577,True,899
100,14,4,coucou,11,2021-11-29T14:04:23.250Z,gomot_a.0007.eq.wav,1,5,704.34790983,3.73360574,True,899
100,14,4,coucou,11,2021-11-29T14:04:23.250Z,gomot_a.0007.eq.wav,1,6,914.17288101,-2.46278355,True,899
100,14,4,coucou,11,2021-11-29T14:04:23.250Z,gomot_a.0007.eq.wav,1,7,1155.34800284,4.88329897,True,899
100,14,4,coucou,11,2021-11-29T14:04:23.250Z,gomot_a.0007.eq.wav,1,8,1432.55733147,-1.36944959,True,899
100,14,4,coucou,11,2021-11-29T14:04:23.250Z,gomot_a.0007.eq.wav,1,9,1751.18477235,1.55311798,True,899
100,14,4,coucou,11,2021-11-29T14:04:23.250Z,gomot_a.0007.eq.wav,1,10,2117.41864548,2.90404319,True,899
100,14,4,coucou,11,2021-11-29T14:04:23.250Z,gomot_a.0007.eq.wav,1,11,2538.37187364,4.90856035,True,899
100,14,4,coucou,11,2021-11-29T14:04:23.250Z,gomot_a.0007.eq.wav,1,12,3022.22012828,1.84485169,True,899
100,14,4,coucou,11,2021-11-29T14:04:23.250Z,gomot_a.0007.eq.wav,1,13,3578.36061576,2.03562731,True,899
100,14,4,coucou,11,2021-11-29T14:04:23.250Z,gomot_a.0007.eq.wav,1,14,4217.59458808,-3.68451812,True,899
100,14,4,coucou,11,2021-11-29T14:04:23.250Z,gomot_a.0007.eq.wav,1,15,4952.33712269,-1.65239714,True,899
100,14,4,coucou,11,2021-11-29T14:04:23.250Z,gomot_a.0007.eq.wav,1,16,5796.85824570,2.56135058,True,899
100,14,4,coucou,11,2021-11-29T14:04:23.250Z,gomot_a.0007.eq.wav,1,17,6767.56008152,-4.19475264,True,899
100,14,4,coucou,11,2021-11-29T14:04:23.250Z,gomot_a.0007.eq.wav,1,18,7883.29541175,1.31216891,True,899
100,14,4,coucou,11,2021-11-29T14:04:23.250Z,gomot_a.0007.eq.wav,1,19,9165.73383021,-0.96922211,True,899
100,14,4,coucou,11,2021-11-29T14:04:23.250Z,gomot_a.0007.eq.wav,1,20,10639.78260555,3.02915438,True,899
100,14,4,coucou,11,2021-11-29T14:04:23.250Z,gomot_a.0007.eq.wav,1,21,12334.07042541,4.18133112,True,899
100,14,4,coucou,11,2021-11-29T14:04:23.250Z,gomot_a.0007.eq.wav,1,22,14281.50341712,-4.63466568,True,899
100,14,4,coucou,11,2021-11-29T14:04:23.250Z,gomot_a.0007.eq.wav,1,23,16519.90424416,4.99824167,True,899
100,14,4,coucou,11,2021-11-29T14:04:23.250Z,gomot_a.0007.eq.wav,1,24,19092.74669051,4.26485701,True,899
100,14,4,coucou,11,2021-11-29T14:04:23.250Z,gomot_a.0007.eq.wav,1,25,22050.00000000,1.52722673,True,899
