subj,trial,block,sex,age,date,stim,stim_order,filter,filter_freq,filter_gain,response,rt
101,0,0,x,99,2021-11-23T14:48:56.590Z,gomot_a.0161.eq.wav,0,0,0.00000000,0.65742999,1,1238
101,0,0,x,99,2021-11-23T14:48:56.590Z,gomot_a.0161.eq.wav,0,1,104.58767290,-1.58142718,1,1238
101,0,0,x,99,2021-11-23T14:48:56.590Z,gomot_a.0161.eq.wav,0,2,224.80189054,-0.82729771,1,1238
101,0,0,x,99,2021-11-23T14:48:56.590Z,gomot_a.0161.eq.wav,0,3,362.97743001,4.86440905,1,1238
101,0,0,x,99,2021-11-23T14:48:56.590Z,gomot_a.0161.eq.wav,0,4,521.79790965,-4.40763650,1,1238
101,0,0,x,99,2021-11-23T14:48:56.590Z,gomot_a.0161.eq.wav,0,5,704.34790983,-4.57891581,1,1238
101,0,0,x,99,2021-11-23T14:48:56.590Z,gomot_a.0161.eq.wav,0,6,914.17288101,-1.54128787,1,1238
101,0,0,x,99,2021-11-23T14:48:56.590Z,gomot_a.0161.eq.wav,0,7,1155.34800284,-4.01238511,1,1238
101,0,0,x,99,2021-11-23T14:48:56.590Z,gomot_a.0161.eq.wav,0,8,1432.55733147,-3.40240684,1,1238
101,0,0,x,99,2021-11-23T14:48:56.590Z,gomot_a.0161.eq.wav,0,9,1751.18477235,1.36080863,1,1238
101,0,0,x,99,2021-11-23T14:48:56.590Z,gomot_a.0161.eq.wav,0,10,2117.41864548,-0.66272917,1,1238
101,0,0,x,99,2021-11-23T14:48:56.590Z,gomot_a.0161.eq.wav,0,11,2538.37187364,-0.22007126,1,1238
101,0,0,x,99,2021-11-23T14:48:56.590Z,gomot_a.0161.eq.wav,0,12,3022.22012828,1.18676390,1,1238
101,0,0,x,99,2021-11-23T14:48:56.590Z,gomot_a.0161.eq.wav,0,13,3578.36061576,-1.37759411,1,1238
101,0,0,x,99,2021-11-23T14:48:56.590Z,gomot_a.0161.eq.wav,0,14,4217.59458808,3.77991309,1,1238
101,0,0,x,99,2021-11-23T14:48:56.590Z,gomot_a.0161.eq.wav,0,15,4952.33712269,0.39661413,1,1238
101,0,0,x,99,2021-11-23T14:48:56.590Z,gomot_a.0161.eq.wav,0,16,5796.85824570,-4.89157863,1,1238
101,0,0,x,99,2021-11-23T14:48:56.590Z,gomot_a.0161.eq.wav,0,17,6767.56008152,0.35094354,1,1238
101,0,0,x,99,2021-11-23T14:48:56.590Z,gomot_a.0161.eq.wav,0,18,7883.29541175,4.78996808,1,1238
101,0,0,x,99,2021-11-23T14:48:56.590Z,gomot_a.0161.eq.wav,0,19,9165.73383021,-4.88341898,1,1238
101,0,0,x,99,2021-11-23T14:48:56.590Z,gomot_a.0161.eq.wav,0,20,10639.78260555,-1.46264244,1,1238
101,0,0,x,99,2021-11-23T14:48:56.590Z,gomot_a.0161.eq.wav,0,21,12334.07042541,-0.03773297,1,1238
101,0,0,x,99,2021-11-23T14:48:56.590Z,gomot_a.0161.eq.wav,0,22,14281.50341712,0.92566844,1,1238
101,0,0,x,99,2021-11-23T14:48:56.590Z,gomot_a.0161.eq.wav,0,23,16519.90424416,-0.93711885,1,1238
101,0,0,x,99,2021-11-23T14:48:56.590Z,gomot_a.0161.eq.wav,0,24,19092.74669051,-4.91923007,1,1238
101,0,0,x,99,2021-11-23T14:48:56.590Z,gomot_a.0161.eq.wav,0,25,22050.00000000,-1.25336000,1,1238
101,0,0,x,99,2021-11-23T14:48:56.590Z,gomot_a.0462.eq.wav,1,0,0.00000000,-0.90610298,0,1238
101,0,0,x,99,2021-11-23T14:48:56.590Z,gomot_a.0462.eq.wav,1,1,104.58767290,-1.64621535,0,1238
101,0,0,x,99,2021-11-23T14:48:56.590Z,gomot_a.0462.eq.wav,1,2,224.80189054,-1.33367520,0,1238
101,0,0,x,99,2021-11-23T14:48:56.590Z,gomot_a.0462.eq.wav,1,3,362.97743001,-2.96583980,0,1238
101,0,0,x,99,2021-11-23T14:48:56.590Z,gomot_a.0462.eq.wav,1,4,521.79790965,2.02172172,0,1238
101,0,0,x,99,2021-11-23T14:48:56.590Z,gomot_a.0462.eq.wav,1,5,704.34790983,-0.32943328,0,1238
101,0,0,x,99,2021-11-23T14:48:56.590Z,gomot_a.0462.eq.wav,1,6,914.17288101,2.81693277,0,1238
101,0,0,x,99,2021-11-23T14:48:56.590Z,gomot_a.0462.eq.wav,1,7,1155.34800284,-4.28569717,0,1238
101,0,0,x,99,2021-11-23T14:48:56.590Z,gomot_a.0462.eq.wav,1,8,1432.55733147,-0.14251272,0,1238
101,0,0,x,99,2021-11-23T14:48:56.590Z,gomot_a.0462.eq.wav,1,9,1751.18477235,0.90776707,0,1238
101,0,0,x,99,2021-11-23T14:48:56.590Z,gomot_a.0462.eq.wav,1,10,2117.41864548,3.52679213,0,1238
101,0,0,x,99,2021-11-23T14:48:56.590Z,gomot_a.0462.eq.wav,1,11,2538.37187364,-0.93797598,0,1238
101,0,0,x,99,2021-11-23T14:48:56.590Z,gomot_a.0462.eq.wav,1,12,3022.22012828,0.64347943,0,1238
101,0,0,x,99,2021-11-23T14:48:56.590Z,gomot_a.0462.eq.wav,1,13,3578.36061576,4.86227661,0,1238
101,0,0,x,99,2021-11-23T14:48:56.590Z,gomot_a.0462.eq.wav,1,14,4217.59458808,3.81673156,0,1238
101,0,0,x,99,2021-11-23T14:48:56.590Z,gomot_a.0462.eq.wav,1,15,4952.33712269,3.52508565,0,1238
101,0,0,x,99,2021-11-23T14:48:56.590Z,gomot_a.0462.eq.wav,1,16,5796.85824570,3.82388540,0,1238
101,0,0,x,99,2021-11-23T14:48:56.590Z,gomot_a.0462.eq.wav,1,17,6767.56008152,-0.74262364,0,1238
101,0,0,x,99,2021-11-23T14:48:56.590Z,gomot_a.0462.eq.wav,1,18,7883.29541175,4.40297935,0,1238
101,0,0,x,99,2021-11-23T14:48:56.590Z,gomot_a.0462.eq.wav,1,19,9165.73383021,-3.01717265,0,1238
101,0,0,x,99,2021-11-23T14:48:56.590Z,gomot_a.0462.eq.wav,1,20,10639.78260555,1.68610874,0,1238
101,0,0,x,99,2021-11-23T14:48:56.590Z,gomot_a.0462.eq.wav,1,21,12334.07042541,-1.78760342,0,1238
101,0,0,x,99,2021-11-23T14:48:56.590Z,gomot_a.0462.eq.wav,1,22,14281.50341712,-0.57349725,0,1238
101,0,0,x,99,2021-11-23T14:48:56.590Z,gomot_a.0462.eq.wav,1,23,16519.90424416,-2.45675626,0,1238
101,0,0,x,99,2021-11-23T14:48:56.590Z,gomot_a.0462.eq.wav,1,24,19092.74669051,2.95060735,0,1238
101,0,0,x,99,2021-11-23T14:48:56.590Z,gomot_a.0462.eq.wav,1,25,22050.00000000,-1.08765333,0,1238
101,1,0,x,99,2021-11-23T14:48:56.590Z,gomot_a.0083.eq.wav,0,0,0.00000000,-1.57463678,0,1611
101,1,0,x,99,2021-11-23T14:48:56.590Z,gomot_a.0083.eq.wav,0,1,104.58767290,0.35415503,0,1611
101,1,0,x,99,2021-11-23T14:48:56.590Z,gomot_a.0083.eq.wav,0,2,224.80189054,-4.87774726,0,1611
101,1,0,x,99,2021-11-23T14:48:56.590Z,gomot_a.0083.eq.wav,0,3,362.97743001,1.16658728,0,1611
101,1,0,x,99,2021-11-23T14:48:56.590Z,gomot_a.0083.eq.wav,0,4,521.79790965,1.86330852,0,1611
101,1,0,x,99,2021-11-23T14:48:56.590Z,gomot_a.0083.eq.wav,0,5,704.34790983,3.89530619,0,1611
101,1,0,x,99,2021-11-23T14:48:56.590Z,gomot_a.0083.eq.wav,0,6,914.17288101,-4.58596069,0,1611
101,1,0,x,99,2021-11-23T14:48:56.590Z,gomot_a.0083.eq.wav,0,7,1155.34800284,-1.30019220,0,1611
101,1,0,x,99,2021-11-23T14:48:56.590Z,gomot_a.0083.eq.wav,0,8,1432.55733147,4.19563655,0,1611
101,1,0,x,99,2021-11-23T14:48:56.590Z,gomot_a.0083.eq.wav,0,9,1751.18477235,-1.58310070,0,1611
101,1,0,x,99,2021-11-23T14:48:56.590Z,gomot_a.0083.eq.wav,0,10,2117.41864548,-4.86618553,0,1611
101,1,0,x,99,2021-11-23T14:48:56.590Z,gomot_a.0083.eq.wav,0,11,2538.37187364,-0.30063484,0,1611
101,1,0,x,99,2021-11-23T14:48:56.590Z,gomot_a.0083.eq.wav,0,12,3022.22012828,0.45428118,0,1611
101,1,0,x,99,2021-11-23T14:48:56.590Z,gomot_a.0083.eq.wav,0,13,3578.36061576,-0.25281106,0,1611
101,1,0,x,99,2021-11-23T14:48:56.590Z,gomot_a.0083.eq.wav,0,14,4217.59458808,2.88931580,0,1611
101,1,0,x,99,2021-11-23T14:48:56.590Z,gomot_a.0083.eq.wav,0,15,4952.33712269,-3.80315762,0,1611
101,1,0,x,99,2021-11-23T14:48:56.590Z,gomot_a.0083.eq.wav,0,16,5796.85824570,3.97665789,0,1611
101,1,0,x,99,2021-11-23T14:48:56.590Z,gomot_a.0083.eq.wav,0,17,6767.56008152,4.81232803,0,1611
101,1,0,x,99,2021-11-23T14:48:56.590Z,gomot_a.0083.eq.wav,0,18,7883.29541175,-2.38673057,0,1611
101,1,0,x,99,2021-11-23T14:48:56.590Z,gomot_a.0083.eq.wav,0,19,9165.73383021,2.09366960,0,1611
101,1,0,x,99,2021-11-23T14:48:56.590Z,gomot_a.0083.eq.wav,0,20,10639.78260555,4.05530591,0,1611
101,1,0,x,99,2021-11-23T14:48:56.590Z,gomot_a.0083.eq.wav,0,21,12334.07042541,-2.67933947,0,1611
101,1,0,x,99,2021-11-23T14:48:56.590Z,gomot_a.0083.eq.wav,0,22,14281.50341712,3.17218485,0,1611
101,1,0,x,99,2021-11-23T14:48:56.590Z,gomot_a.0083.eq.wav,0,23,16519.90424416,2.77870773,0,1611
101,1,0,x,99,2021-11-23T14:48:56.590Z,gomot_a.0083.eq.wav,0,24,19092.74669051,-2.03513287,0,1611
101,1,0,x,99,2021-11-23T14:48:56.590Z,gomot_a.0083.eq.wav,0,25,22050.00000000,-3.67240514,0,1611
101,1,0,x,99,2021-11-23T14:48:56.590Z,gomot_a.0379.eq.wav,1,0,0.00000000,-3.78176208,1,1611
101,1,0,x,99,2021-11-23T14:48:56.590Z,gomot_a.0379.eq.wav,1,1,104.58767290,3.92785007,1,1611
101,1,0,x,99,2021-11-23T14:48:56.590Z,gomot_a.0379.eq.wav,1,2,224.80189054,-0.62363979,1,1611
101,1,0,x,99,2021-11-23T14:48:56.590Z,gomot_a.0379.eq.wav,1,3,362.97743001,-4.63440112,1,1611
101,1,0,x,99,2021-11-23T14:48:56.590Z,gomot_a.0379.eq.wav,1,4,521.79790965,4.06499522,1,1611
101,1,0,x,99,2021-11-23T14:48:56.590Z,gomot_a.0379.eq.wav,1,5,704.34790983,-3.13470321,1,1611
101,1,0,x,99,2021-11-23T14:48:56.590Z,gomot_a.0379.eq.wav,1,6,914.17288101,-0.86026874,1,1611
101,1,0,x,99,2021-11-23T14:48:56.590Z,gomot_a.0379.eq.wav,1,7,1155.34800284,1.19213505,1,1611
101,1,0,x,99,2021-11-23T14:48:56.590Z,gomot_a.0379.eq.wav,1,8,1432.55733147,-3.17744147,1,1611
101,1,0,x,99,2021-11-23T14:48:56.590Z,gomot_a.0379.eq.wav,1,9,1751.18477235,2.92190717,1,1611
101,1,0,x,99,2021-11-23T14:48:56.590Z,gomot_a.0379.eq.wav,1,10,2117.41864548,-1.40921547,1,1611
101,1,0,x,99,2021-11-23T14:48:56.590Z,gomot_a.0379.eq.wav,1,11,2538.37187364,-0.82652483,1,1611
101,1,0,x,99,2021-11-23T14:48:56.590Z,gomot_a.0379.eq.wav,1,12,3022.22012828,3.93422103,1,1611
101,1,0,x,99,2021-11-23T14:48:56.590Z,gomot_a.0379.eq.wav,1,13,3578.36061576,1.55474222,1,1611
101,1,0,x,99,2021-11-23T14:48:56.590Z,gomot_a.0379.eq.wav,1,14,4217.59458808,0.60457323,1,1611
101,1,0,x,99,2021-11-23T14:48:56.590Z,gomot_a.0379.eq.wav,1,15,4952.33712269,2.61842773,1,1611
101,1,0,x,99,2021-11-23T14:48:56.590Z,gomot_a.0379.eq.wav,1,16,5796.85824570,-1.49808244,1,1611
101,1,0,x,99,2021-11-23T14:48:56.590Z,gomot_a.0379.eq.wav,1,17,6767.56008152,1.95442908,1,1611
101,1,0,x,99,2021-11-23T14:48:56.590Z,gomot_a.0379.eq.wav,1,18,7883.29541175,1.15803276,1,1611
101,1,0,x,99,2021-11-23T14:48:56.590Z,gomot_a.0379.eq.wav,1,19,9165.73383021,0.11604192,1,1611
101,1,0,x,99,2021-11-23T14:48:56.590Z,gomot_a.0379.eq.wav,1,20,10639.78260555,-4.83910012,1,1611
101,1,0,x,99,2021-11-23T14:48:56.590Z,gomot_a.0379.eq.wav,1,21,12334.07042541,-2.88771647,1,1611
101,1,0,x,99,2021-11-23T14:48:56.590Z,gomot_a.0379.eq.wav,1,22,14281.50341712,4.89876116,1,1611
101,1,0,x,99,2021-11-23T14:48:56.590Z,gomot_a.0379.eq.wav,1,23,16519.90424416,-3.06579555,1,1611
101,1,0,x,99,2021-11-23T14:48:56.590Z,gomot_a.0379.eq.wav,1,24,19092.74669051,-2.05368507,1,1611
101,1,0,x,99,2021-11-23T14:48:56.590Z,gomot_a.0379.eq.wav,1,25,22050.00000000,3.21504463,1,1611
101,2,0,x,99,2021-11-23T14:55:17.699Z,gomot_a.0353.eq.wav,0,0,0.00000000,-3.67604774,0,595
101,2,0,x,99,2021-11-23T14:55:17.699Z,gomot_a.0353.eq.wav,0,1,104.58767290,-0.60513292,0,595
101,2,0,x,99,2021-11-23T14:55:17.699Z,gomot_a.0353.eq.wav,0,2,224.80189054,-4.54801331,0,595
101,2,0,x,99,2021-11-23T14:55:17.699Z,gomot_a.0353.eq.wav,0,3,362.97743001,2.28666660,0,595
101,2,0,x,99,2021-11-23T14:55:17.699Z,gomot_a.0353.eq.wav,0,4,521.79790965,-0.98834246,0,595
101,2,0,x,99,2021-11-23T14:55:17.699Z,gomot_a.0353.eq.wav,0,5,704.34790983,1.25701784,0,595
101,2,0,x,99,2021-11-23T14:55:17.699Z,gomot_a.0353.eq.wav,0,6,914.17288101,2.37012831,0,595
101,2,0,x,99,2021-11-23T14:55:17.699Z,gomot_a.0353.eq.wav,0,7,1155.34800284,2.56836667,0,595
101,2,0,x,99,2021-11-23T14:55:17.699Z,gomot_a.0353.eq.wav,0,8,1432.55733147,0.52279674,0,595
101,2,0,x,99,2021-11-23T14:55:17.699Z,gomot_a.0353.eq.wav,0,9,1751.18477235,-1.61178730,0,595
101,2,0,x,99,2021-11-23T14:55:17.699Z,gomot_a.0353.eq.wav,0,10,2117.41864548,-1.58702942,0,595
101,2,0,x,99,2021-11-23T14:55:17.699Z,gomot_a.0353.eq.wav,0,11,2538.37187364,-2.10691586,0,595
101,2,0,x,99,2021-11-23T14:55:17.699Z,gomot_a.0353.eq.wav,0,12,3022.22012828,-0.36306384,0,595
101,2,0,x,99,2021-11-23T14:55:17.699Z,gomot_a.0353.eq.wav,0,13,3578.36061576,-1.32155664,0,595
101,2,0,x,99,2021-11-23T14:55:17.699Z,gomot_a.0353.eq.wav,0,14,4217.59458808,4.07333146,0,595
101,2,0,x,99,2021-11-23T14:55:17.699Z,gomot_a.0353.eq.wav,0,15,4952.33712269,-0.26576833,0,595
101,2,0,x,99,2021-11-23T14:55:17.699Z,gomot_a.0353.eq.wav,0,16,5796.85824570,4.52845196,0,595
101,2,0,x,99,2021-11-23T14:55:17.699Z,gomot_a.0353.eq.wav,0,17,6767.56008152,2.02442966,0,595
101,2,0,x,99,2021-11-23T14:55:17.699Z,gomot_a.0353.eq.wav,0,18,7883.29541175,-2.83454235,0,595
101,2,0,x,99,2021-11-23T14:55:17.699Z,gomot_a.0353.eq.wav,0,19,9165.73383021,-3.47378879,0,595
101,2,0,x,99,2021-11-23T14:55:17.699Z,gomot_a.0353.eq.wav,0,20,10639.78260555,-1.26537861,0,595
101,2,0,x,99,2021-11-23T14:55:17.699Z,gomot_a.0353.eq.wav,0,21,12334.07042541,0.43047551,0,595
101,2,0,x,99,2021-11-23T14:55:17.699Z,gomot_a.0353.eq.wav,0,22,14281.50341712,0.38635870,0,595
101,2,0,x,99,2021-11-23T14:55:17.699Z,gomot_a.0353.eq.wav,0,23,16519.90424416,-0.53406618,0,595
101,2,0,x,99,2021-11-23T14:55:17.699Z,gomot_a.0353.eq.wav,0,24,19092.74669051,-4.84392149,0,595
101,2,0,x,99,2021-11-23T14:55:17.699Z,gomot_a.0353.eq.wav,0,25,22050.00000000,0.79896582,0,595
101,2,0,x,99,2021-11-23T14:55:17.699Z,gomot_a.0242.eq.wav,1,0,0.00000000,-1.82666968,1,595
101,2,0,x,99,2021-11-23T14:55:17.699Z,gomot_a.0242.eq.wav,1,1,104.58767290,-0.90366110,1,595
101,2,0,x,99,2021-11-23T14:55:17.699Z,gomot_a.0242.eq.wav,1,2,224.80189054,-0.88593858,1,595
101,2,0,x,99,2021-11-23T14:55:17.699Z,gomot_a.0242.eq.wav,1,3,362.97743001,-1.04883161,1,595
101,2,0,x,99,2021-11-23T14:55:17.699Z,gomot_a.0242.eq.wav,1,4,521.79790965,4.98141232,1,595
101,2,0,x,99,2021-11-23T14:55:17.699Z,gomot_a.0242.eq.wav,1,5,704.34790983,3.12577237,1,595
101,2,0,x,99,2021-11-23T14:55:17.699Z,gomot_a.0242.eq.wav,1,6,914.17288101,-4.51489807,1,595
101,2,0,x,99,2021-11-23T14:55:17.699Z,gomot_a.0242.eq.wav,1,7,1155.34800284,2.04598656,1,595
101,2,0,x,99,2021-11-23T14:55:17.699Z,gomot_a.0242.eq.wav,1,8,1432.55733147,1.02871947,1,595
101,2,0,x,99,2021-11-23T14:55:17.699Z,gomot_a.0242.eq.wav,1,9,1751.18477235,3.46484211,1,595
101,2,0,x,99,2021-11-23T14:55:17.699Z,gomot_a.0242.eq.wav,1,10,2117.41864548,-1.17997649,1,595
101,2,0,x,99,2021-11-23T14:55:17.699Z,gomot_a.0242.eq.wav,1,11,2538.37187364,3.43989057,1,595
101,2,0,x,99,2021-11-23T14:55:17.699Z,gomot_a.0242.eq.wav,1,12,3022.22012828,1.01326964,1,595
101,2,0,x,99,2021-11-23T14:55:17.699Z,gomot_a.0242.eq.wav,1,13,3578.36061576,1.92808305,1,595
101,2,0,x,99,2021-11-23T14:55:17.699Z,gomot_a.0242.eq.wav,1,14,4217.59458808,3.46134732,1,595
101,2,0,x,99,2021-11-23T14:55:17.699Z,gomot_a.0242.eq.wav,1,15,4952.33712269,0.94278370,1,595
101,2,0,x,99,2021-11-23T14:55:17.699Z,gomot_a.0242.eq.wav,1,16,5796.85824570,4.53688242,1,595
101,2,0,x,99,2021-11-23T14:55:17.699Z,gomot_a.0242.eq.wav,1,17,6767.56008152,-2.14341319,1,595
101,2,0,x,99,2021-11-23T14:55:17.699Z,gomot_a.0242.eq.wav,1,18,7883.29541175,0.77371071,1,595
101,2,0,x,99,2021-11-23T14:55:17.699Z,gomot_a.0242.eq.wav,1,19,9165.73383021,-2.81829552,1,595
101,2,0,x,99,2021-11-23T14:55:17.699Z,gomot_a.0242.eq.wav,1,20,10639.78260555,3.69937339,1,595
101,2,0,x,99,2021-11-23T14:55:17.699Z,gomot_a.0242.eq.wav,1,21,12334.07042541,1.94535706,1,595
101,2,0,x,99,2021-11-23T14:55:17.699Z,gomot_a.0242.eq.wav,1,22,14281.50341712,-3.14639582,1,595
101,2,0,x,99,2021-11-23T14:55:17.699Z,gomot_a.0242.eq.wav,1,23,16519.90424416,1.79834221,1,595
101,2,0,x,99,2021-11-23T14:55:17.699Z,gomot_a.0242.eq.wav,1,24,19092.74669051,3.40507217,1,595
101,2,0,x,99,2021-11-23T14:55:17.699Z,gomot_a.0242.eq.wav,1,25,22050.00000000,3.46009255,1,595
101,3,1,x,99,2021-11-23T14:55:17.699Z,gomot_a.0286.eq.wav,0,0,0.00000000,-0.92341081,0,1503
101,3,1,x,99,2021-11-23T14:55:17.699Z,gomot_a.0286.eq.wav,0,1,104.58767290,-2.01778016,0,1503
101,3,1,x,99,2021-11-23T14:55:17.699Z,gomot_a.0286.eq.wav,0,2,224.80189054,-2.55229328,0,1503
101,3,1,x,99,2021-11-23T14:55:17.699Z,gomot_a.0286.eq.wav,0,3,362.97743001,-3.67473177,0,1503
101,3,1,x,99,2021-11-23T14:55:17.699Z,gomot_a.0286.eq.wav,0,4,521.79790965,-4.33559145,0,1503
101,3,1,x,99,2021-11-23T14:55:17.699Z,gomot_a.0286.eq.wav,0,5,704.34790983,3.58918759,0,1503
101,3,1,x,99,2021-11-23T14:55:17.699Z,gomot_a.0286.eq.wav,0,6,914.17288101,-4.48633828,0,1503
101,3,1,x,99,2021-11-23T14:55:17.699Z,gomot_a.0286.eq.wav,0,7,1155.34800284,-0.40824662,0,1503
101,3,1,x,99,2021-11-23T14:55:17.699Z,gomot_a.0286.eq.wav,0,8,1432.55733147,1.44384613,0,1503
101,3,1,x,99,2021-11-23T14:55:17.699Z,gomot_a.0286.eq.wav,0,9,1751.18477235,1.92613602,0,1503
101,3,1,x,99,2021-11-23T14:55:17.699Z,gomot_a.0286.eq.wav,0,10,2117.41864548,-1.51216475,0,1503
101,3,1,x,99,2021-11-23T14:55:17.699Z,gomot_a.0286.eq.wav,0,11,2538.37187364,-1.97491522,0,1503
101,3,1,x,99,2021-11-23T14:55:17.699Z,gomot_a.0286.eq.wav,0,12,3022.22012828,-0.12205063,0,1503
101,3,1,x,99,2021-11-23T14:55:17.699Z,gomot_a.0286.eq.wav,0,13,3578.36061576,-4.26970447,0,1503
101,3,1,x,99,2021-11-23T14:55:17.699Z,gomot_a.0286.eq.wav,0,14,4217.59458808,-0.21305143,0,1503
101,3,1,x,99,2021-11-23T14:55:17.699Z,gomot_a.0286.eq.wav,0,15,4952.33712269,0.90477316,0,1503
101,3,1,x,99,2021-11-23T14:55:17.699Z,gomot_a.0286.eq.wav,0,16,5796.85824570,-2.10864450,0,1503
101,3,1,x,99,2021-11-23T14:55:17.699Z,gomot_a.0286.eq.wav,0,17,6767.56008152,-2.33360569,0,1503
101,3,1,x,99,2021-11-23T14:55:17.699Z,gomot_a.0286.eq.wav,0,18,7883.29541175,2.13533461,0,1503
101,3,1,x,99,2021-11-23T14:55:17.699Z,gomot_a.0286.eq.wav,0,19,9165.73383021,4.27581822,0,1503
101,3,1,x,99,2021-11-23T14:55:17.699Z,gomot_a.0286.eq.wav,0,20,10639.78260555,-0.94140718,0,1503
101,3,1,x,99,2021-11-23T14:55:17.699Z,gomot_a.0286.eq.wav,0,21,12334.07042541,1.07804277,0,1503
101,3,1,x,99,2021-11-23T14:55:17.699Z,gomot_a.0286.eq.wav,0,22,14281.50341712,-1.95233253,0,1503
101,3,1,x,99,2021-11-23T14:55:17.699Z,gomot_a.0286.eq.wav,0,23,16519.90424416,2.74930404,0,1503
101,3,1,x,99,2021-11-23T14:55:17.699Z,gomot_a.0286.eq.wav,0,24,19092.74669051,-2.21643745,0,1503
101,3,1,x,99,2021-11-23T14:55:17.699Z,gomot_a.0286.eq.wav,0,25,22050.00000000,-3.43765483,0,1503
101,3,1,x,99,2021-11-23T14:55:17.699Z,gomot_a.0553.eq.wav,1,0,0.00000000,3.62757012,1,1503
101,3,1,x,99,2021-11-23T14:55:17.699Z,gomot_a.0553.eq.wav,1,1,104.58767290,-0.15548284,1,1503
101,3,1,x,99,2021-11-23T14:55:17.699Z,gomot_a.0553.eq.wav,1,2,224.80189054,0.79184394,1,1503
101,3,1,x,99,2021-11-23T14:55:17.699Z,gomot_a.0553.eq.wav,1,3,362.97743001,4.42487388,1,1503
101,3,1,x,99,2021-11-23T14:55:17.699Z,gomot_a.0553.eq.wav,1,4,521.79790965,2.81194884,1,1503
101,3,1,x,99,2021-11-23T14:55:17.699Z,gomot_a.0553.eq.wav,1,5,704.34790983,0.04722955,1,1503
101,3,1,x,99,2021-11-23T14:55:17.699Z,gomot_a.0553.eq.wav,1,6,914.17288101,4.72262079,1,1503
101,3,1,x,99,2021-11-23T14:55:17.699Z,gomot_a.0553.eq.wav,1,7,1155.34800284,-0.37823856,1,1503
101,3,1,x,99,2021-11-23T14:55:17.699Z,gomot_a.0553.eq.wav,1,8,1432.55733147,-0.10675266,1,1503
101,3,1,x,99,2021-11-23T14:55:17.699Z,gomot_a.0553.eq.wav,1,9,1751.18477235,3.79100096,1,1503
101,3,1,x,99,2021-11-23T14:55:17.699Z,gomot_a.0553.eq.wav,1,10,2117.41864548,-3.71950054,1,1503
101,3,1,x,99,2021-11-23T14:55:17.699Z,gomot_a.0553.eq.wav,1,11,2538.37187364,-2.49504156,1,1503
101,3,1,x,99,2021-11-23T14:55:17.699Z,gomot_a.0553.eq.wav,1,12,3022.22012828,-0.43499076,1,1503
101,3,1,x,99,2021-11-23T14:55:17.699Z,gomot_a.0553.eq.wav,1,13,3578.36061576,-1.29374648,1,1503
101,3,1,x,99,2021-11-23T14:55:17.699Z,gomot_a.0553.eq.wav,1,14,4217.59458808,1.66998971,1,1503
101,3,1,x,99,2021-11-23T14:55:17.699Z,gomot_a.0553.eq.wav,1,15,4952.33712269,2.55969031,1,1503
101,3,1,x,99,2021-11-23T14:55:17.699Z,gomot_a.0553.eq.wav,1,16,5796.85824570,-2.78971403,1,1503
101,3,1,x,99,2021-11-23T14:55:17.699Z,gomot_a.0553.eq.wav,1,17,6767.56008152,0.92953308,1,1503
101,3,1,x,99,2021-11-23T14:55:17.699Z,gomot_a.0553.eq.wav,1,18,7883.29541175,-0.09087179,1,1503
101,3,1,x,99,2021-11-23T14:55:17.699Z,gomot_a.0553.eq.wav,1,19,9165.73383021,3.90030472,1,1503
101,3,1,x,99,2021-11-23T14:55:17.699Z,gomot_a.0553.eq.wav,1,20,10639.78260555,2.51193735,1,1503
101,3,1,x,99,2021-11-23T14:55:17.699Z,gomot_a.0553.eq.wav,1,21,12334.07042541,-4.01307146,1,1503
101,3,1,x,99,2021-11-23T14:55:17.699Z,gomot_a.0553.eq.wav,1,22,14281.50341712,-2.82584401,1,1503
101,3,1,x,99,2021-11-23T14:55:17.699Z,gomot_a.0553.eq.wav,1,23,16519.90424416,1.40923121,1,1503
101,3,1,x,99,2021-11-23T14:55:17.699Z,gomot_a.0553.eq.wav,1,24,19092.74669051,-0.25141256,1,1503
101,3,1,x,99,2021-11-23T14:55:17.699Z,gomot_a.0553.eq.wav,1,25,22050.00000000,0.49783078,1,1503
101,4,1,x,99,2021-11-23T14:56:53.277Z,gomot_a.0539.eq.wav,0,0,0.00000000,2.77166649,True,337
101,4,1,x,99,2021-11-23T14:56:53.277Z,gomot_a.0539.eq.wav,0,1,104.58767290,1.34863528,True,337
101,4,1,x,99,2021-11-23T14:56:53.277Z,gomot_a.0539.eq.wav,0,2,224.80189054,2.16483327,True,337
101,4,1,x,99,2021-11-23T14:56:53.277Z,gomot_a.0539.eq.wav,0,3,362.97743001,3.64081306,True,337
101,4,1,x,99,2021-11-23T14:56:53.277Z,gomot_a.0539.eq.wav,0,4,521.79790965,2.74342729,True,337
101,4,1,x,99,2021-11-23T14:56:53.277Z,gomot_a.0539.eq.wav,0,5,704.34790983,-0.91028379,True,337
101,4,1,x,99,2021-11-23T14:56:53.277Z,gomot_a.0539.eq.wav,0,6,914.17288101,-0.00291054,True,337
101,4,1,x,99,2021-11-23T14:56:53.277Z,gomot_a.0539.eq.wav,0,7,1155.34800284,-1.54888557,True,337
101,4,1,x,99,2021-11-23T14:56:53.277Z,gomot_a.0539.eq.wav,0,8,1432.55733147,4.90415272,True,337
101,4,1,x,99,2021-11-23T14:56:53.277Z,gomot_a.0539.eq.wav,0,9,1751.18477235,2.01565635,True,337
101,4,1,x,99,2021-11-23T14:56:53.277Z,gomot_a.0539.eq.wav,0,10,2117.41864548,1.68625604,True,337
101,4,1,x,99,2021-11-23T14:56:53.277Z,gomot_a.0539.eq.wav,0,11,2538.37187364,-0.75655314,True,337
101,4,1,x,99,2021-11-23T14:56:53.277Z,gomot_a.0539.eq.wav,0,12,3022.22012828,1.16595999,True,337
101,4,1,x,99,2021-11-23T14:56:53.277Z,gomot_a.0539.eq.wav,0,13,3578.36061576,-4.10727883,True,337
101,4,1,x,99,2021-11-23T14:56:53.277Z,gomot_a.0539.eq.wav,0,14,4217.59458808,-0.02370009,True,337
101,4,1,x,99,2021-11-23T14:56:53.277Z,gomot_a.0539.eq.wav,0,15,4952.33712269,1.63887120,True,337
101,4,1,x,99,2021-11-23T14:56:53.277Z,gomot_a.0539.eq.wav,0,16,5796.85824570,4.29915032,True,337
101,4,1,x,99,2021-11-23T14:56:53.277Z,gomot_a.0539.eq.wav,0,17,6767.56008152,3.78526830,True,337
101,4,1,x,99,2021-11-23T14:56:53.277Z,gomot_a.0539.eq.wav,0,18,7883.29541175,3.46704750,True,337
101,4,1,x,99,2021-11-23T14:56:53.277Z,gomot_a.0539.eq.wav,0,19,9165.73383021,4.96927162,True,337
101,4,1,x,99,2021-11-23T14:56:53.277Z,gomot_a.0539.eq.wav,0,20,10639.78260555,0.97105534,True,337
101,4,1,x,99,2021-11-23T14:56:53.277Z,gomot_a.0539.eq.wav,0,21,12334.07042541,-4.68324619,True,337
101,4,1,x,99,2021-11-23T14:56:53.277Z,gomot_a.0539.eq.wav,0,22,14281.50341712,-2.92210331,True,337
101,4,1,x,99,2021-11-23T14:56:53.277Z,gomot_a.0539.eq.wav,0,23,16519.90424416,-0.49263380,True,337
101,4,1,x,99,2021-11-23T14:56:53.277Z,gomot_a.0539.eq.wav,0,24,19092.74669051,3.29330875,True,337
101,4,1,x,99,2021-11-23T14:56:53.277Z,gomot_a.0539.eq.wav,0,25,22050.00000000,-3.66504196,True,337
101,4,1,x,99,2021-11-23T14:56:53.277Z,gomot_a.0384.eq.wav,1,0,0.00000000,-2.56876599,False,337
101,4,1,x,99,2021-11-23T14:56:53.277Z,gomot_a.0384.eq.wav,1,1,104.58767290,2.03677652,False,337
101,4,1,x,99,2021-11-23T14:56:53.277Z,gomot_a.0384.eq.wav,1,2,224.80189054,-3.79505630,False,337
101,4,1,x,99,2021-11-23T14:56:53.277Z,gomot_a.0384.eq.wav,1,3,362.97743001,0.14471805,False,337
101,4,1,x,99,2021-11-23T14:56:53.277Z,gomot_a.0384.eq.wav,1,4,521.79790965,-4.16284041,False,337
101,4,1,x,99,2021-11-23T14:56:53.277Z,gomot_a.0384.eq.wav,1,5,704.34790983,4.22976277,False,337
101,4,1,x,99,2021-11-23T14:56:53.277Z,gomot_a.0384.eq.wav,1,6,914.17288101,4.16830165,False,337
101,4,1,x,99,2021-11-23T14:56:53.277Z,gomot_a.0384.eq.wav,1,7,1155.34800284,0.54492851,False,337
101,4,1,x,99,2021-11-23T14:56:53.277Z,gomot_a.0384.eq.wav,1,8,1432.55733147,1.05704773,False,337
101,4,1,x,99,2021-11-23T14:56:53.277Z,gomot_a.0384.eq.wav,1,9,1751.18477235,0.66416310,False,337
101,4,1,x,99,2021-11-23T14:56:53.277Z,gomot_a.0384.eq.wav,1,10,2117.41864548,0.60692758,False,337
101,4,1,x,99,2021-11-23T14:56:53.277Z,gomot_a.0384.eq.wav,1,11,2538.37187364,-4.80948255,False,337
101,4,1,x,99,2021-11-23T14:56:53.277Z,gomot_a.0384.eq.wav,1,12,3022.22012828,-4.92579669,False,337
101,4,1,x,99,2021-11-23T14:56:53.277Z,gomot_a.0384.eq.wav,1,13,3578.36061576,-2.99627482,False,337
101,4,1,x,99,2021-11-23T14:56:53.277Z,gomot_a.0384.eq.wav,1,14,4217.59458808,-1.82629794,False,337
101,4,1,x,99,2021-11-23T14:56:53.277Z,gomot_a.0384.eq.wav,1,15,4952.33712269,-2.49497194,False,337
101,4,1,x,99,2021-11-23T14:56:53.277Z,gomot_a.0384.eq.wav,1,16,5796.85824570,-3.82046596,False,337
101,4,1,x,99,2021-11-23T14:56:53.277Z,gomot_a.0384.eq.wav,1,17,6767.56008152,-0.06720709,False,337
101,4,1,x,99,2021-11-23T14:56:53.277Z,gomot_a.0384.eq.wav,1,18,7883.29541175,1.75576869,False,337
101,4,1,x,99,2021-11-23T14:56:53.277Z,gomot_a.0384.eq.wav,1,19,9165.73383021,1.58367814,False,337
101,4,1,x,99,2021-11-23T14:56:53.277Z,gomot_a.0384.eq.wav,1,20,10639.78260555,-0.29505848,False,337
101,4,1,x,99,2021-11-23T14:56:53.277Z,gomot_a.0384.eq.wav,1,21,12334.07042541,1.86365894,False,337
101,4,1,x,99,2021-11-23T14:56:53.277Z,gomot_a.0384.eq.wav,1,22,14281.50341712,-0.04099992,False,337
101,4,1,x,99,2021-11-23T14:56:53.277Z,gomot_a.0384.eq.wav,1,23,16519.90424416,-0.45973765,False,337
101,4,1,x,99,2021-11-23T14:56:53.277Z,gomot_a.0384.eq.wav,1,24,19092.74669051,3.57444954,False,337
101,4,1,x,99,2021-11-23T14:56:53.277Z,gomot_a.0384.eq.wav,1,25,22050.00000000,-0.50260392,False,337
101,5,1,x,99,2021-11-23T14:57:49.866Z,gomot_a.0136.eq.wav,0,0,0.00000000,3.79108196,True,364
101,5,1,x,99,2021-11-23T14:57:49.866Z,gomot_a.0136.eq.wav,0,1,104.58767290,-1.33468071,True,364
101,5,1,x,99,2021-11-23T14:57:49.866Z,gomot_a.0136.eq.wav,0,2,224.80189054,-3.18114169,True,364
101,5,1,x,99,2021-11-23T14:57:49.866Z,gomot_a.0136.eq.wav,0,3,362.97743001,3.27361501,True,364
101,5,1,x,99,2021-11-23T14:57:49.866Z,gomot_a.0136.eq.wav,0,4,521.79790965,3.13222738,True,364
101,5,1,x,99,2021-11-23T14:57:49.866Z,gomot_a.0136.eq.wav,0,5,704.34790983,0.89836335,True,364
101,5,1,x,99,2021-11-23T14:57:49.866Z,gomot_a.0136.eq.wav,0,6,914.17288101,-0.86486197,True,364
101,5,1,x,99,2021-11-23T14:57:49.866Z,gomot_a.0136.eq.wav,0,7,1155.34800284,-2.56526090,True,364
101,5,1,x,99,2021-11-23T14:57:49.866Z,gomot_a.0136.eq.wav,0,8,1432.55733147,-3.23292648,True,364
101,5,1,x,99,2021-11-23T14:57:49.866Z,gomot_a.0136.eq.wav,0,9,1751.18477235,1.73414441,True,364
101,5,1,x,99,2021-11-23T14:57:49.866Z,gomot_a.0136.eq.wav,0,10,2117.41864548,0.10742514,True,364
101,5,1,x,99,2021-11-23T14:57:49.866Z,gomot_a.0136.eq.wav,0,11,2538.37187364,2.19369837,True,364
101,5,1,x,99,2021-11-23T14:57:49.866Z,gomot_a.0136.eq.wav,0,12,3022.22012828,-0.30831595,True,364
101,5,1,x,99,2021-11-23T14:57:49.866Z,gomot_a.0136.eq.wav,0,13,3578.36061576,-1.91365950,True,364
101,5,1,x,99,2021-11-23T14:57:49.866Z,gomot_a.0136.eq.wav,0,14,4217.59458808,2.26301666,True,364
101,5,1,x,99,2021-11-23T14:57:49.866Z,gomot_a.0136.eq.wav,0,15,4952.33712269,-3.52736089,True,364
101,5,1,x,99,2021-11-23T14:57:49.866Z,gomot_a.0136.eq.wav,0,16,5796.85824570,-4.56100535,True,364
101,5,1,x,99,2021-11-23T14:57:49.866Z,gomot_a.0136.eq.wav,0,17,6767.56008152,0.39474160,True,364
101,5,1,x,99,2021-11-23T14:57:49.866Z,gomot_a.0136.eq.wav,0,18,7883.29541175,-0.81588811,True,364
101,5,1,x,99,2021-11-23T14:57:49.866Z,gomot_a.0136.eq.wav,0,19,9165.73383021,2.36369108,True,364
101,5,1,x,99,2021-11-23T14:57:49.866Z,gomot_a.0136.eq.wav,0,20,10639.78260555,-3.59680535,True,364
101,5,1,x,99,2021-11-23T14:57:49.866Z,gomot_a.0136.eq.wav,0,21,12334.07042541,-4.50409553,True,364
101,5,1,x,99,2021-11-23T14:57:49.866Z,gomot_a.0136.eq.wav,0,22,14281.50341712,-3.16456705,True,364
101,5,1,x,99,2021-11-23T14:57:49.866Z,gomot_a.0136.eq.wav,0,23,16519.90424416,1.89512841,True,364
101,5,1,x,99,2021-11-23T14:57:49.866Z,gomot_a.0136.eq.wav,0,24,19092.74669051,-2.92275545,True,364
101,5,1,x,99,2021-11-23T14:57:49.866Z,gomot_a.0136.eq.wav,0,25,22050.00000000,-2.56361362,True,364
101,5,1,x,99,2021-11-23T14:57:49.866Z,gomot_a.0186.eq.wav,1,0,0.00000000,-1.88603251,False,364
101,5,1,x,99,2021-11-23T14:57:49.866Z,gomot_a.0186.eq.wav,1,1,104.58767290,1.77723623,False,364
101,5,1,x,99,2021-11-23T14:57:49.866Z,gomot_a.0186.eq.wav,1,2,224.80189054,2.07672739,False,364
101,5,1,x,99,2021-11-23T14:57:49.866Z,gomot_a.0186.eq.wav,1,3,362.97743001,-4.18842017,False,364
101,5,1,x,99,2021-11-23T14:57:49.866Z,gomot_a.0186.eq.wav,1,4,521.79790965,-0.13957732,False,364
101,5,1,x,99,2021-11-23T14:57:49.866Z,gomot_a.0186.eq.wav,1,5,704.34790983,-0.89841536,False,364
101,5,1,x,99,2021-11-23T14:57:49.866Z,gomot_a.0186.eq.wav,1,6,914.17288101,0.01494768,False,364
101,5,1,x,99,2021-11-23T14:57:49.866Z,gomot_a.0186.eq.wav,1,7,1155.34800284,3.33363052,False,364
101,5,1,x,99,2021-11-23T14:57:49.866Z,gomot_a.0186.eq.wav,1,8,1432.55733147,-4.90294548,False,364
101,5,1,x,99,2021-11-23T14:57:49.866Z,gomot_a.0186.eq.wav,1,9,1751.18477235,-4.81591896,False,364
101,5,1,x,99,2021-11-23T14:57:49.866Z,gomot_a.0186.eq.wav,1,10,2117.41864548,-0.74940632,False,364
101,5,1,x,99,2021-11-23T14:57:49.866Z,gomot_a.0186.eq.wav,1,11,2538.37187364,0.34534028,False,364
101,5,1,x,99,2021-11-23T14:57:49.866Z,gomot_a.0186.eq.wav,1,12,3022.22012828,-4.57825933,False,364
101,5,1,x,99,2021-11-23T14:57:49.866Z,gomot_a.0186.eq.wav,1,13,3578.36061576,-3.96034291,False,364
101,5,1,x,99,2021-11-23T14:57:49.866Z,gomot_a.0186.eq.wav,1,14,4217.59458808,-3.69899560,False,364
101,5,1,x,99,2021-11-23T14:57:49.866Z,gomot_a.0186.eq.wav,1,15,4952.33712269,3.28606569,False,364
101,5,1,x,99,2021-11-23T14:57:49.866Z,gomot_a.0186.eq.wav,1,16,5796.85824570,2.63180580,False,364
101,5,1,x,99,2021-11-23T14:57:49.866Z,gomot_a.0186.eq.wav,1,17,6767.56008152,-0.35789399,False,364
101,5,1,x,99,2021-11-23T14:57:49.866Z,gomot_a.0186.eq.wav,1,18,7883.29541175,-3.76967113,False,364
101,5,1,x,99,2021-11-23T14:57:49.866Z,gomot_a.0186.eq.wav,1,19,9165.73383021,-1.07147542,False,364
101,5,1,x,99,2021-11-23T14:57:49.866Z,gomot_a.0186.eq.wav,1,20,10639.78260555,-3.31117013,False,364
101,5,1,x,99,2021-11-23T14:57:49.866Z,gomot_a.0186.eq.wav,1,21,12334.07042541,-2.36382486,False,364
101,5,1,x,99,2021-11-23T14:57:49.866Z,gomot_a.0186.eq.wav,1,22,14281.50341712,-0.26008317,False,364
101,5,1,x,99,2021-11-23T14:57:49.866Z,gomot_a.0186.eq.wav,1,23,16519.90424416,-3.65840100,False,364
101,5,1,x,99,2021-11-23T14:57:49.866Z,gomot_a.0186.eq.wav,1,24,19092.74669051,3.01596331,False,364
101,5,1,x,99,2021-11-23T14:57:49.866Z,gomot_a.0186.eq.wav,1,25,22050.00000000,-2.78568547,False,364
101,6,2,x,99,2021-11-23T14:57:49.866Z,gomot_a.0020.eq.wav,0,0,0.00000000,4.96542171,False,622
101,6,2,x,99,2021-11-23T14:57:49.866Z,gomot_a.0020.eq.wav,0,1,104.58767290,3.70867697,False,622
101,6,2,x,99,2021-11-23T14:57:49.866Z,gomot_a.0020.eq.wav,0,2,224.80189054,3.01594880,False,622
101,6,2,x,99,2021-11-23T14:57:49.866Z,gomot_a.0020.eq.wav,0,3,362.97743001,2.11336103,False,622
101,6,2,x,99,2021-11-23T14:57:49.866Z,gomot_a.0020.eq.wav,0,4,521.79790965,3.50412173,False,622
101,6,2,x,99,2021-11-23T14:57:49.866Z,gomot_a.0020.eq.wav,0,5,704.34790983,-0.31099961,False,622
101,6,2,x,99,2021-11-23T14:57:49.866Z,gomot_a.0020.eq.wav,0,6,914.17288101,0.46480446,False,622
101,6,2,x,99,2021-11-23T14:57:49.866Z,gomot_a.0020.eq.wav,0,7,1155.34800284,-1.36246750,False,622
101,6,2,x,99,2021-11-23T14:57:49.866Z,gomot_a.0020.eq.wav,0,8,1432.55733147,-1.08955245,False,622
101,6,2,x,99,2021-11-23T14:57:49.866Z,gomot_a.0020.eq.wav,0,9,1751.18477235,-1.16195114,False,622
101,6,2,x,99,2021-11-23T14:57:49.866Z,gomot_a.0020.eq.wav,0,10,2117.41864548,-1.46436422,False,622
101,6,2,x,99,2021-11-23T14:57:49.866Z,gomot_a.0020.eq.wav,0,11,2538.37187364,-3.93251486,False,622
101,6,2,x,99,2021-11-23T14:57:49.866Z,gomot_a.0020.eq.wav,0,12,3022.22012828,3.25456005,False,622
101,6,2,x,99,2021-11-23T14:57:49.866Z,gomot_a.0020.eq.wav,0,13,3578.36061576,2.32248413,False,622
101,6,2,x,99,2021-11-23T14:57:49.866Z,gomot_a.0020.eq.wav,0,14,4217.59458808,-2.58458506,False,622
101,6,2,x,99,2021-11-23T14:57:49.866Z,gomot_a.0020.eq.wav,0,15,4952.33712269,3.79536628,False,622
101,6,2,x,99,2021-11-23T14:57:49.866Z,gomot_a.0020.eq.wav,0,16,5796.85824570,0.36851995,False,622
101,6,2,x,99,2021-11-23T14:57:49.866Z,gomot_a.0020.eq.wav,0,17,6767.56008152,0.07333771,False,622
101,6,2,x,99,2021-11-23T14:57:49.866Z,gomot_a.0020.eq.wav,0,18,7883.29541175,-1.47597670,False,622
101,6,2,x,99,2021-11-23T14:57:49.866Z,gomot_a.0020.eq.wav,0,19,9165.73383021,-0.24383466,False,622
101,6,2,x,99,2021-11-23T14:57:49.866Z,gomot_a.0020.eq.wav,0,20,10639.78260555,-4.61110031,False,622
101,6,2,x,99,2021-11-23T14:57:49.866Z,gomot_a.0020.eq.wav,0,21,12334.07042541,2.32452794,False,622
101,6,2,x,99,2021-11-23T14:57:49.866Z,gomot_a.0020.eq.wav,0,22,14281.50341712,-3.26917893,False,622
101,6,2,x,99,2021-11-23T14:57:49.866Z,gomot_a.0020.eq.wav,0,23,16519.90424416,1.09843738,False,622
101,6,2,x,99,2021-11-23T14:57:49.866Z,gomot_a.0020.eq.wav,0,24,19092.74669051,0.90967320,False,622
101,6,2,x,99,2021-11-23T14:57:49.866Z,gomot_a.0020.eq.wav,0,25,22050.00000000,3.61032159,False,622
101,6,2,x,99,2021-11-23T14:57:49.866Z,gomot_a.0321.eq.wav,1,0,0.00000000,-2.31981379,True,622
101,6,2,x,99,2021-11-23T14:57:49.866Z,gomot_a.0321.eq.wav,1,1,104.58767290,-4.49415759,True,622
101,6,2,x,99,2021-11-23T14:57:49.866Z,gomot_a.0321.eq.wav,1,2,224.80189054,-3.62176054,True,622
101,6,2,x,99,2021-11-23T14:57:49.866Z,gomot_a.0321.eq.wav,1,3,362.97743001,-1.84796693,True,622
101,6,2,x,99,2021-11-23T14:57:49.866Z,gomot_a.0321.eq.wav,1,4,521.79790965,3.62582880,True,622
101,6,2,x,99,2021-11-23T14:57:49.866Z,gomot_a.0321.eq.wav,1,5,704.34790983,-2.38113647,True,622
101,6,2,x,99,2021-11-23T14:57:49.866Z,gomot_a.0321.eq.wav,1,6,914.17288101,0.62914438,True,622
101,6,2,x,99,2021-11-23T14:57:49.866Z,gomot_a.0321.eq.wav,1,7,1155.34800284,1.35161660,True,622
101,6,2,x,99,2021-11-23T14:57:49.866Z,gomot_a.0321.eq.wav,1,8,1432.55733147,0.37054403,True,622
101,6,2,x,99,2021-11-23T14:57:49.866Z,gomot_a.0321.eq.wav,1,9,1751.18477235,3.19715381,True,622
101,6,2,x,99,2021-11-23T14:57:49.866Z,gomot_a.0321.eq.wav,1,10,2117.41864548,0.01650479,True,622
101,6,2,x,99,2021-11-23T14:57:49.866Z,gomot_a.0321.eq.wav,1,11,2538.37187364,4.19102299,True,622
101,6,2,x,99,2021-11-23T14:57:49.866Z,gomot_a.0321.eq.wav,1,12,3022.22012828,-1.92729128,True,622
101,6,2,x,99,2021-11-23T14:57:49.866Z,gomot_a.0321.eq.wav,1,13,3578.36061576,-4.78716776,True,622
101,6,2,x,99,2021-11-23T14:57:49.866Z,gomot_a.0321.eq.wav,1,14,4217.59458808,2.36256379,True,622
101,6,2,x,99,2021-11-23T14:57:49.866Z,gomot_a.0321.eq.wav,1,15,4952.33712269,-2.16484957,True,622
101,6,2,x,99,2021-11-23T14:57:49.866Z,gomot_a.0321.eq.wav,1,16,5796.85824570,-2.84029877,True,622
101,6,2,x,99,2021-11-23T14:57:49.866Z,gomot_a.0321.eq.wav,1,17,6767.56008152,-1.83481509,True,622
101,6,2,x,99,2021-11-23T14:57:49.866Z,gomot_a.0321.eq.wav,1,18,7883.29541175,1.49162442,True,622
101,6,2,x,99,2021-11-23T14:57:49.866Z,gomot_a.0321.eq.wav,1,19,9165.73383021,-1.39595714,True,622
101,6,2,x,99,2021-11-23T14:57:49.866Z,gomot_a.0321.eq.wav,1,20,10639.78260555,0.95596771,True,622
101,6,2,x,99,2021-11-23T14:57:49.866Z,gomot_a.0321.eq.wav,1,21,12334.07042541,-0.50371499,True,622
101,6,2,x,99,2021-11-23T14:57:49.866Z,gomot_a.0321.eq.wav,1,22,14281.50341712,4.19798191,True,622
101,6,2,x,99,2021-11-23T14:57:49.866Z,gomot_a.0321.eq.wav,1,23,16519.90424416,1.26328392,True,622
101,6,2,x,99,2021-11-23T14:57:49.866Z,gomot_a.0321.eq.wav,1,24,19092.74669051,3.18563936,True,622
101,6,2,x,99,2021-11-23T14:57:49.866Z,gomot_a.0321.eq.wav,1,25,22050.00000000,-0.95810915,True,622
101,7,2,x,99,2021-11-23T14:57:49.866Z,gomot_a.0575.eq.wav,0,0,0.00000000,1.39412315,True,373
101,7,2,x,99,2021-11-23T14:57:49.866Z,gomot_a.0575.eq.wav,0,1,104.58767290,-1.10554560,True,373
101,7,2,x,99,2021-11-23T14:57:49.866Z,gomot_a.0575.eq.wav,0,2,224.80189054,0.31356737,True,373
101,7,2,x,99,2021-11-23T14:57:49.866Z,gomot_a.0575.eq.wav,0,3,362.97743001,-4.89355399,True,373
101,7,2,x,99,2021-11-23T14:57:49.866Z,gomot_a.0575.eq.wav,0,4,521.79790965,1.49461980,True,373
101,7,2,x,99,2021-11-23T14:57:49.866Z,gomot_a.0575.eq.wav,0,5,704.34790983,4.30323481,True,373
101,7,2,x,99,2021-11-23T14:57:49.866Z,gomot_a.0575.eq.wav,0,6,914.17288101,0.69743002,True,373
101,7,2,x,99,2021-11-23T14:57:49.866Z,gomot_a.0575.eq.wav,0,7,1155.34800284,3.00929890,True,373
101,7,2,x,99,2021-11-23T14:57:49.866Z,gomot_a.0575.eq.wav,0,8,1432.55733147,-2.37218394,True,373
101,7,2,x,99,2021-11-23T14:57:49.866Z,gomot_a.0575.eq.wav,0,9,1751.18477235,2.08057822,True,373
101,7,2,x,99,2021-11-23T14:57:49.866Z,gomot_a.0575.eq.wav,0,10,2117.41864548,1.73649640,True,373
101,7,2,x,99,2021-11-23T14:57:49.866Z,gomot_a.0575.eq.wav,0,11,2538.37187364,-1.33994399,True,373
101,7,2,x,99,2021-11-23T14:57:49.866Z,gomot_a.0575.eq.wav,0,12,3022.22012828,4.44571317,True,373
101,7,2,x,99,2021-11-23T14:57:49.866Z,gomot_a.0575.eq.wav,0,13,3578.36061576,0.32501903,True,373
101,7,2,x,99,2021-11-23T14:57:49.866Z,gomot_a.0575.eq.wav,0,14,4217.59458808,-2.32104514,True,373
101,7,2,x,99,2021-11-23T14:57:49.866Z,gomot_a.0575.eq.wav,0,15,4952.33712269,-3.47527167,True,373
101,7,2,x,99,2021-11-23T14:57:49.866Z,gomot_a.0575.eq.wav,0,16,5796.85824570,4.10070113,True,373
101,7,2,x,99,2021-11-23T14:57:49.866Z,gomot_a.0575.eq.wav,0,17,6767.56008152,-4.23299422,True,373
101,7,2,x,99,2021-11-23T14:57:49.866Z,gomot_a.0575.eq.wav,0,18,7883.29541175,0.70681062,True,373
101,7,2,x,99,2021-11-23T14:57:49.866Z,gomot_a.0575.eq.wav,0,19,9165.73383021,-2.22109679,True,373
101,7,2,x,99,2021-11-23T14:57:49.866Z,gomot_a.0575.eq.wav,0,20,10639.78260555,3.86454457,True,373
101,7,2,x,99,2021-11-23T14:57:49.866Z,gomot_a.0575.eq.wav,0,21,12334.07042541,-2.52381186,True,373
101,7,2,x,99,2021-11-23T14:57:49.866Z,gomot_a.0575.eq.wav,0,22,14281.50341712,-4.12903916,True,373
101,7,2,x,99,2021-11-23T14:57:49.866Z,gomot_a.0575.eq.wav,0,23,16519.90424416,1.62030823,True,373
101,7,2,x,99,2021-11-23T14:57:49.866Z,gomot_a.0575.eq.wav,0,24,19092.74669051,2.66832401,True,373
101,7,2,x,99,2021-11-23T14:57:49.866Z,gomot_a.0575.eq.wav,0,25,22050.00000000,-0.01805885,True,373
101,7,2,x,99,2021-11-23T14:57:49.866Z,gomot_a.0093.eq.wav,1,0,0.00000000,0.18532855,False,373
101,7,2,x,99,2021-11-23T14:57:49.866Z,gomot_a.0093.eq.wav,1,1,104.58767290,-2.48255958,False,373
101,7,2,x,99,2021-11-23T14:57:49.866Z,gomot_a.0093.eq.wav,1,2,224.80189054,-2.26932846,False,373
101,7,2,x,99,2021-11-23T14:57:49.866Z,gomot_a.0093.eq.wav,1,3,362.97743001,0.02329384,False,373
101,7,2,x,99,2021-11-23T14:57:49.866Z,gomot_a.0093.eq.wav,1,4,521.79790965,0.65237081,False,373
101,7,2,x,99,2021-11-23T14:57:49.866Z,gomot_a.0093.eq.wav,1,5,704.34790983,3.97335403,False,373
101,7,2,x,99,2021-11-23T14:57:49.866Z,gomot_a.0093.eq.wav,1,6,914.17288101,-0.12187932,False,373
101,7,2,x,99,2021-11-23T14:57:49.866Z,gomot_a.0093.eq.wav,1,7,1155.34800284,-4.41089817,False,373
101,7,2,x,99,2021-11-23T14:57:49.866Z,gomot_a.0093.eq.wav,1,8,1432.55733147,-1.86466769,False,373
101,7,2,x,99,2021-11-23T14:57:49.866Z,gomot_a.0093.eq.wav,1,9,1751.18477235,-0.32729385,False,373
101,7,2,x,99,2021-11-23T14:57:49.866Z,gomot_a.0093.eq.wav,1,10,2117.41864548,-3.10041691,False,373
101,7,2,x,99,2021-11-23T14:57:49.866Z,gomot_a.0093.eq.wav,1,11,2538.37187364,-3.83810534,False,373
101,7,2,x,99,2021-11-23T14:57:49.866Z,gomot_a.0093.eq.wav,1,12,3022.22012828,1.23320882,False,373
101,7,2,x,99,2021-11-23T14:57:49.866Z,gomot_a.0093.eq.wav,1,13,3578.36061576,-0.90887852,False,373
101,7,2,x,99,2021-11-23T14:57:49.866Z,gomot_a.0093.eq.wav,1,14,4217.59458808,-3.45505592,False,373
101,7,2,x,99,2021-11-23T14:57:49.866Z,gomot_a.0093.eq.wav,1,15,4952.33712269,-1.13606035,False,373
101,7,2,x,99,2021-11-23T14:57:49.866Z,gomot_a.0093.eq.wav,1,16,5796.85824570,2.43685875,False,373
101,7,2,x,99,2021-11-23T14:57:49.866Z,gomot_a.0093.eq.wav,1,17,6767.56008152,-0.56478358,False,373
101,7,2,x,99,2021-11-23T14:57:49.866Z,gomot_a.0093.eq.wav,1,18,7883.29541175,-3.97493042,False,373
101,7,2,x,99,2021-11-23T14:57:49.866Z,gomot_a.0093.eq.wav,1,19,9165.73383021,-0.93521911,False,373
101,7,2,x,99,2021-11-23T14:57:49.866Z,gomot_a.0093.eq.wav,1,20,10639.78260555,-2.56994628,False,373
101,7,2,x,99,2021-11-23T14:57:49.866Z,gomot_a.0093.eq.wav,1,21,12334.07042541,0.38835675,False,373
101,7,2,x,99,2021-11-23T14:57:49.866Z,gomot_a.0093.eq.wav,1,22,14281.50341712,2.72830301,False,373
101,7,2,x,99,2021-11-23T14:57:49.866Z,gomot_a.0093.eq.wav,1,23,16519.90424416,-0.30155661,False,373
101,7,2,x,99,2021-11-23T14:57:49.866Z,gomot_a.0093.eq.wav,1,24,19092.74669051,-0.13473000,False,373
101,7,2,x,99,2021-11-23T14:57:49.866Z,gomot_a.0093.eq.wav,1,25,22050.00000000,-1.62104468,False,373
101,8,2,x,99,2021-11-23T14:57:49.866Z,gomot_a.0281.eq.wav,0,0,0.00000000,-2.51294870,False,605
101,8,2,x,99,2021-11-23T14:57:49.866Z,gomot_a.0281.eq.wav,0,1,104.58767290,3.59503648,False,605
101,8,2,x,99,2021-11-23T14:57:49.866Z,gomot_a.0281.eq.wav,0,2,224.80189054,-0.88343590,False,605
101,8,2,x,99,2021-11-23T14:57:49.866Z,gomot_a.0281.eq.wav,0,3,362.97743001,3.24369552,False,605
101,8,2,x,99,2021-11-23T14:57:49.866Z,gomot_a.0281.eq.wav,0,4,521.79790965,-3.96104677,False,605
101,8,2,x,99,2021-11-23T14:57:49.866Z,gomot_a.0281.eq.wav,0,5,704.34790983,-1.29564585,False,605
101,8,2,x,99,2021-11-23T14:57:49.866Z,gomot_a.0281.eq.wav,0,6,914.17288101,2.64440395,False,605
101,8,2,x,99,2021-11-23T14:57:49.866Z,gomot_a.0281.eq.wav,0,7,1155.34800284,3.90153356,False,605
101,8,2,x,99,2021-11-23T14:57:49.866Z,gomot_a.0281.eq.wav,0,8,1432.55733147,4.74227794,False,605
101,8,2,x,99,2021-11-23T14:57:49.866Z,gomot_a.0281.eq.wav,0,9,1751.18477235,4.46004903,False,605
101,8,2,x,99,2021-11-23T14:57:49.866Z,gomot_a.0281.eq.wav,0,10,2117.41864548,3.28091400,False,605
101,8,2,x,99,2021-11-23T14:57:49.866Z,gomot_a.0281.eq.wav,0,11,2538.37187364,-3.76119722,False,605
101,8,2,x,99,2021-11-23T14:57:49.866Z,gomot_a.0281.eq.wav,0,12,3022.22012828,-4.94564616,False,605
101,8,2,x,99,2021-11-23T14:57:49.866Z,gomot_a.0281.eq.wav,0,13,3578.36061576,-0.30535322,False,605
101,8,2,x,99,2021-11-23T14:57:49.866Z,gomot_a.0281.eq.wav,0,14,4217.59458808,2.32145531,False,605
101,8,2,x,99,2021-11-23T14:57:49.866Z,gomot_a.0281.eq.wav,0,15,4952.33712269,-2.01324357,False,605
101,8,2,x,99,2021-11-23T14:57:49.866Z,gomot_a.0281.eq.wav,0,16,5796.85824570,0.78235976,False,605
101,8,2,x,99,2021-11-23T14:57:49.866Z,gomot_a.0281.eq.wav,0,17,6767.56008152,-4.14808806,False,605
101,8,2,x,99,2021-11-23T14:57:49.866Z,gomot_a.0281.eq.wav,0,18,7883.29541175,1.68271598,False,605
101,8,2,x,99,2021-11-23T14:57:49.866Z,gomot_a.0281.eq.wav,0,19,9165.73383021,-0.51380346,False,605
101,8,2,x,99,2021-11-23T14:57:49.866Z,gomot_a.0281.eq.wav,0,20,10639.78260555,-2.35728279,False,605
101,8,2,x,99,2021-11-23T14:57:49.866Z,gomot_a.0281.eq.wav,0,21,12334.07042541,-2.65223019,False,605
101,8,2,x,99,2021-11-23T14:57:49.866Z,gomot_a.0281.eq.wav,0,22,14281.50341712,-1.72757843,False,605
101,8,2,x,99,2021-11-23T14:57:49.866Z,gomot_a.0281.eq.wav,0,23,16519.90424416,3.86657426,False,605
101,8,2,x,99,2021-11-23T14:57:49.866Z,gomot_a.0281.eq.wav,0,24,19092.74669051,3.80456373,False,605
101,8,2,x,99,2021-11-23T14:57:49.866Z,gomot_a.0281.eq.wav,0,25,22050.00000000,1.45422896,False,605
101,8,2,x,99,2021-11-23T14:57:49.866Z,gomot_a.0293.eq.wav,1,0,0.00000000,-0.56672335,True,605
101,8,2,x,99,2021-11-23T14:57:49.866Z,gomot_a.0293.eq.wav,1,1,104.58767290,-1.10429612,True,605
101,8,2,x,99,2021-11-23T14:57:49.866Z,gomot_a.0293.eq.wav,1,2,224.80189054,1.33795150,True,605
101,8,2,x,99,2021-11-23T14:57:49.866Z,gomot_a.0293.eq.wav,1,3,362.97743001,3.72237524,True,605
101,8,2,x,99,2021-11-23T14:57:49.866Z,gomot_a.0293.eq.wav,1,4,521.79790965,-2.17968081,True,605
101,8,2,x,99,2021-11-23T14:57:49.866Z,gomot_a.0293.eq.wav,1,5,704.34790983,3.86917912,True,605
101,8,2,x,99,2021-11-23T14:57:49.866Z,gomot_a.0293.eq.wav,1,6,914.17288101,-1.26268149,True,605
101,8,2,x,99,2021-11-23T14:57:49.866Z,gomot_a.0293.eq.wav,1,7,1155.34800284,-0.51812346,True,605
101,8,2,x,99,2021-11-23T14:57:49.866Z,gomot_a.0293.eq.wav,1,8,1432.55733147,0.91864733,True,605
101,8,2,x,99,2021-11-23T14:57:49.866Z,gomot_a.0293.eq.wav,1,9,1751.18477235,4.92541628,True,605
101,8,2,x,99,2021-11-23T14:57:49.866Z,gomot_a.0293.eq.wav,1,10,2117.41864548,1.13632689,True,605
101,8,2,x,99,2021-11-23T14:57:49.866Z,gomot_a.0293.eq.wav,1,11,2538.37187364,3.59458384,True,605
101,8,2,x,99,2021-11-23T14:57:49.866Z,gomot_a.0293.eq.wav,1,12,3022.22012828,2.59297280,True,605
101,8,2,x,99,2021-11-23T14:57:49.866Z,gomot_a.0293.eq.wav,1,13,3578.36061576,-0.16670623,True,605
101,8,2,x,99,2021-11-23T14:57:49.866Z,gomot_a.0293.eq.wav,1,14,4217.59458808,-2.72435389,True,605
101,8,2,x,99,2021-11-23T14:57:49.866Z,gomot_a.0293.eq.wav,1,15,4952.33712269,-1.54325575,True,605
101,8,2,x,99,2021-11-23T14:57:49.866Z,gomot_a.0293.eq.wav,1,16,5796.85824570,-0.95985791,True,605
101,8,2,x,99,2021-11-23T14:57:49.866Z,gomot_a.0293.eq.wav,1,17,6767.56008152,-3.29629073,True,605
101,8,2,x,99,2021-11-23T14:57:49.866Z,gomot_a.0293.eq.wav,1,18,7883.29541175,-2.16957482,True,605
101,8,2,x,99,2021-11-23T14:57:49.866Z,gomot_a.0293.eq.wav,1,19,9165.73383021,0.65918373,True,605
101,8,2,x,99,2021-11-23T14:57:49.866Z,gomot_a.0293.eq.wav,1,20,10639.78260555,-1.09544158,True,605
101,8,2,x,99,2021-11-23T14:57:49.866Z,gomot_a.0293.eq.wav,1,21,12334.07042541,-2.59788226,True,605
101,8,2,x,99,2021-11-23T14:57:49.866Z,gomot_a.0293.eq.wav,1,22,14281.50341712,-2.56729863,True,605
101,8,2,x,99,2021-11-23T14:57:49.866Z,gomot_a.0293.eq.wav,1,23,16519.90424416,-3.74693342,True,605
101,8,2,x,99,2021-11-23T14:57:49.866Z,gomot_a.0293.eq.wav,1,24,19092.74669051,-2.33810764,True,605
101,8,2,x,99,2021-11-23T14:57:49.866Z,gomot_a.0293.eq.wav,1,25,22050.00000000,0.36016333,True,605
101,9,3,x,99,2021-11-23T14:57:49.866Z,gomot_a.0551.eq.wav,0,0,0.00000000,4.13652010,False,478
101,9,3,x,99,2021-11-23T14:57:49.866Z,gomot_a.0551.eq.wav,0,1,104.58767290,0.95620488,False,478
101,9,3,x,99,2021-11-23T14:57:49.866Z,gomot_a.0551.eq.wav,0,2,224.80189054,3.55134339,False,478
101,9,3,x,99,2021-11-23T14:57:49.866Z,gomot_a.0551.eq.wav,0,3,362.97743001,-1.86907919,False,478
101,9,3,x,99,2021-11-23T14:57:49.866Z,gomot_a.0551.eq.wav,0,4,521.79790965,-4.72863716,False,478
101,9,3,x,99,2021-11-23T14:57:49.866Z,gomot_a.0551.eq.wav,0,5,704.34790983,-3.44983066,False,478
101,9,3,x,99,2021-11-23T14:57:49.866Z,gomot_a.0551.eq.wav,0,6,914.17288101,-2.93813307,False,478
101,9,3,x,99,2021-11-23T14:57:49.866Z,gomot_a.0551.eq.wav,0,7,1155.34800284,3.58534324,False,478
101,9,3,x,99,2021-11-23T14:57:49.866Z,gomot_a.0551.eq.wav,0,8,1432.55733147,-1.04116825,False,478
101,9,3,x,99,2021-11-23T14:57:49.866Z,gomot_a.0551.eq.wav,0,9,1751.18477235,-3.72456673,False,478
101,9,3,x,99,2021-11-23T14:57:49.866Z,gomot_a.0551.eq.wav,0,10,2117.41864548,-2.29118797,False,478
101,9,3,x,99,2021-11-23T14:57:49.866Z,gomot_a.0551.eq.wav,0,11,2538.37187364,1.31545470,False,478
101,9,3,x,99,2021-11-23T14:57:49.866Z,gomot_a.0551.eq.wav,0,12,3022.22012828,2.41191512,False,478
101,9,3,x,99,2021-11-23T14:57:49.866Z,gomot_a.0551.eq.wav,0,13,3578.36061576,0.50224555,False,478
101,9,3,x,99,2021-11-23T14:57:49.866Z,gomot_a.0551.eq.wav,0,14,4217.59458808,3.85701766,False,478
101,9,3,x,99,2021-11-23T14:57:49.866Z,gomot_a.0551.eq.wav,0,15,4952.33712269,-1.25745962,False,478
101,9,3,x,99,2021-11-23T14:57:49.866Z,gomot_a.0551.eq.wav,0,16,5796.85824570,-0.06201606,False,478
101,9,3,x,99,2021-11-23T14:57:49.866Z,gomot_a.0551.eq.wav,0,17,6767.56008152,4.21317582,False,478
101,9,3,x,99,2021-11-23T14:57:49.866Z,gomot_a.0551.eq.wav,0,18,7883.29541175,-3.11428734,False,478
101,9,3,x,99,2021-11-23T14:57:49.866Z,gomot_a.0551.eq.wav,0,19,9165.73383021,-3.18722627,False,478
101,9,3,x,99,2021-11-23T14:57:49.866Z,gomot_a.0551.eq.wav,0,20,10639.78260555,4.93215481,False,478
101,9,3,x,99,2021-11-23T14:57:49.866Z,gomot_a.0551.eq.wav,0,21,12334.07042541,2.02321233,False,478
101,9,3,x,99,2021-11-23T14:57:49.866Z,gomot_a.0551.eq.wav,0,22,14281.50341712,2.04361547,False,478
101,9,3,x,99,2021-11-23T14:57:49.866Z,gomot_a.0551.eq.wav,0,23,16519.90424416,0.90577259,False,478
101,9,3,x,99,2021-11-23T14:57:49.866Z,gomot_a.0551.eq.wav,0,24,19092.74669051,-3.71954253,False,478
101,9,3,x,99,2021-11-23T14:57:49.866Z,gomot_a.0551.eq.wav,0,25,22050.00000000,0.08542412,False,478
101,9,3,x,99,2021-11-23T14:57:49.866Z,gomot_a.0081.eq.wav,1,0,0.00000000,-0.99458023,True,478
101,9,3,x,99,2021-11-23T14:57:49.866Z,gomot_a.0081.eq.wav,1,1,104.58767290,0.75324475,True,478
101,9,3,x,99,2021-11-23T14:57:49.866Z,gomot_a.0081.eq.wav,1,2,224.80189054,2.88072771,True,478
101,9,3,x,99,2021-11-23T14:57:49.866Z,gomot_a.0081.eq.wav,1,3,362.97743001,0.46570032,True,478
101,9,3,x,99,2021-11-23T14:57:49.866Z,gomot_a.0081.eq.wav,1,4,521.79790965,-3.36700207,True,478
101,9,3,x,99,2021-11-23T14:57:49.866Z,gomot_a.0081.eq.wav,1,5,704.34790983,2.38748672,True,478
101,9,3,x,99,2021-11-23T14:57:49.866Z,gomot_a.0081.eq.wav,1,6,914.17288101,2.28565256,True,478
101,9,3,x,99,2021-11-23T14:57:49.866Z,gomot_a.0081.eq.wav,1,7,1155.34800284,4.78773113,True,478
101,9,3,x,99,2021-11-23T14:57:49.866Z,gomot_a.0081.eq.wav,1,8,1432.55733147,1.34258771,True,478
101,9,3,x,99,2021-11-23T14:57:49.866Z,gomot_a.0081.eq.wav,1,9,1751.18477235,2.64151180,True,478
101,9,3,x,99,2021-11-23T14:57:49.866Z,gomot_a.0081.eq.wav,1,10,2117.41864548,1.83841048,True,478
101,9,3,x,99,2021-11-23T14:57:49.866Z,gomot_a.0081.eq.wav,1,11,2538.37187364,-4.23271001,True,478
101,9,3,x,99,2021-11-23T14:57:49.866Z,gomot_a.0081.eq.wav,1,12,3022.22012828,2.08909233,True,478
101,9,3,x,99,2021-11-23T14:57:49.866Z,gomot_a.0081.eq.wav,1,13,3578.36061576,-1.48775199,True,478
101,9,3,x,99,2021-11-23T14:57:49.866Z,gomot_a.0081.eq.wav,1,14,4217.59458808,-2.29500114,True,478
101,9,3,x,99,2021-11-23T14:57:49.866Z,gomot_a.0081.eq.wav,1,15,4952.33712269,-0.95622052,True,478
101,9,3,x,99,2021-11-23T14:57:49.866Z,gomot_a.0081.eq.wav,1,16,5796.85824570,1.33719563,True,478
101,9,3,x,99,2021-11-23T14:57:49.866Z,gomot_a.0081.eq.wav,1,17,6767.56008152,-2.95177878,True,478
101,9,3,x,99,2021-11-23T14:57:49.866Z,gomot_a.0081.eq.wav,1,18,7883.29541175,3.82320183,True,478
101,9,3,x,99,2021-11-23T14:57:49.866Z,gomot_a.0081.eq.wav,1,19,9165.73383021,1.54672690,True,478
101,9,3,x,99,2021-11-23T14:57:49.866Z,gomot_a.0081.eq.wav,1,20,10639.78260555,1.05770973,True,478
101,9,3,x,99,2021-11-23T14:57:49.866Z,gomot_a.0081.eq.wav,1,21,12334.07042541,0.22488734,True,478
101,9,3,x,99,2021-11-23T14:57:49.866Z,gomot_a.0081.eq.wav,1,22,14281.50341712,-0.46841050,True,478
101,9,3,x,99,2021-11-23T14:57:49.866Z,gomot_a.0081.eq.wav,1,23,16519.90424416,4.81206461,True,478
101,9,3,x,99,2021-11-23T14:57:49.866Z,gomot_a.0081.eq.wav,1,24,19092.74669051,-2.70528365,True,478
101,9,3,x,99,2021-11-23T14:57:49.866Z,gomot_a.0081.eq.wav,1,25,22050.00000000,-4.96437929,True,478
101,10,3,x,99,2021-11-23T14:57:49.866Z,gomot_a.0299.eq.wav,0,0,0.00000000,-0.73098309,True,317
101,10,3,x,99,2021-11-23T14:57:49.866Z,gomot_a.0299.eq.wav,0,1,104.58767290,4.56189932,True,317
101,10,3,x,99,2021-11-23T14:57:49.866Z,gomot_a.0299.eq.wav,0,2,224.80189054,1.35844479,True,317
101,10,3,x,99,2021-11-23T14:57:49.866Z,gomot_a.0299.eq.wav,0,3,362.97743001,-0.42260258,True,317
101,10,3,x,99,2021-11-23T14:57:49.866Z,gomot_a.0299.eq.wav,0,4,521.79790965,4.21112430,True,317
101,10,3,x,99,2021-11-23T14:57:49.866Z,gomot_a.0299.eq.wav,0,5,704.34790983,4.21728008,True,317
101,10,3,x,99,2021-11-23T14:57:49.866Z,gomot_a.0299.eq.wav,0,6,914.17288101,-4.39639179,True,317
101,10,3,x,99,2021-11-23T14:57:49.866Z,gomot_a.0299.eq.wav,0,7,1155.34800284,2.75502229,True,317
101,10,3,x,99,2021-11-23T14:57:49.866Z,gomot_a.0299.eq.wav,0,8,1432.55733147,3.38208823,True,317
101,10,3,x,99,2021-11-23T14:57:49.866Z,gomot_a.0299.eq.wav,0,9,1751.18477235,4.40434861,True,317
101,10,3,x,99,2021-11-23T14:57:49.866Z,gomot_a.0299.eq.wav,0,10,2117.41864548,0.67636891,True,317
101,10,3,x,99,2021-11-23T14:57:49.866Z,gomot_a.0299.eq.wav,0,11,2538.37187364,2.82112784,True,317
101,10,3,x,99,2021-11-23T14:57:49.866Z,gomot_a.0299.eq.wav,0,12,3022.22012828,3.84494303,True,317
101,10,3,x,99,2021-11-23T14:57:49.866Z,gomot_a.0299.eq.wav,0,13,3578.36061576,4.88830403,True,317
101,10,3,x,99,2021-11-23T14:57:49.866Z,gomot_a.0299.eq.wav,0,14,4217.59458808,1.34985876,True,317
101,10,3,x,99,2021-11-23T14:57:49.866Z,gomot_a.0299.eq.wav,0,15,4952.33712269,-3.84537001,True,317
101,10,3,x,99,2021-11-23T14:57:49.866Z,gomot_a.0299.eq.wav,0,16,5796.85824570,-2.17677607,True,317
101,10,3,x,99,2021-11-23T14:57:49.866Z,gomot_a.0299.eq.wav,0,17,6767.56008152,-2.40035126,True,317
101,10,3,x,99,2021-11-23T14:57:49.866Z,gomot_a.0299.eq.wav,0,18,7883.29541175,0.33747880,True,317
101,10,3,x,99,2021-11-23T14:57:49.866Z,gomot_a.0299.eq.wav,0,19,9165.73383021,1.83984401,True,317
101,10,3,x,99,2021-11-23T14:57:49.866Z,gomot_a.0299.eq.wav,0,20,10639.78260555,2.15113871,True,317
101,10,3,x,99,2021-11-23T14:57:49.866Z,gomot_a.0299.eq.wav,0,21,12334.07042541,-2.22875877,True,317
101,10,3,x,99,2021-11-23T14:57:49.866Z,gomot_a.0299.eq.wav,0,22,14281.50341712,-4.50413698,True,317
101,10,3,x,99,2021-11-23T14:57:49.866Z,gomot_a.0299.eq.wav,0,23,16519.90424416,3.54966154,True,317
101,10,3,x,99,2021-11-23T14:57:49.866Z,gomot_a.0299.eq.wav,0,24,19092.74669051,-1.81782979,True,317
101,10,3,x,99,2021-11-23T14:57:49.866Z,gomot_a.0299.eq.wav,0,25,22050.00000000,-3.26616245,True,317
101,10,3,x,99,2021-11-23T14:57:49.866Z,gomot_a.0104.eq.wav,1,0,0.00000000,1.12371184,False,317
101,10,3,x,99,2021-11-23T14:57:49.866Z,gomot_a.0104.eq.wav,1,1,104.58767290,-3.74839194,False,317
101,10,3,x,99,2021-11-23T14:57:49.866Z,gomot_a.0104.eq.wav,1,2,224.80189054,0.86559351,False,317
101,10,3,x,99,2021-11-23T14:57:49.866Z,gomot_a.0104.eq.wav,1,3,362.97743001,3.20036058,False,317
101,10,3,x,99,2021-11-23T14:57:49.866Z,gomot_a.0104.eq.wav,1,4,521.79790965,-3.74113377,False,317
101,10,3,x,99,2021-11-23T14:57:49.866Z,gomot_a.0104.eq.wav,1,5,704.34790983,1.21046479,False,317
101,10,3,x,99,2021-11-23T14:57:49.866Z,gomot_a.0104.eq.wav,1,6,914.17288101,2.13709943,False,317
101,10,3,x,99,2021-11-23T14:57:49.866Z,gomot_a.0104.eq.wav,1,7,1155.34800284,-1.16155411,False,317
101,10,3,x,99,2021-11-23T14:57:49.866Z,gomot_a.0104.eq.wav,1,8,1432.55733147,4.11692470,False,317
101,10,3,x,99,2021-11-23T14:57:49.866Z,gomot_a.0104.eq.wav,1,9,1751.18477235,0.28750771,False,317
101,10,3,x,99,2021-11-23T14:57:49.866Z,gomot_a.0104.eq.wav,1,10,2117.41864548,3.27672316,False,317
101,10,3,x,99,2021-11-23T14:57:49.866Z,gomot_a.0104.eq.wav,1,11,2538.37187364,1.49909335,False,317
101,10,3,x,99,2021-11-23T14:57:49.866Z,gomot_a.0104.eq.wav,1,12,3022.22012828,4.99894813,False,317
101,10,3,x,99,2021-11-23T14:57:49.866Z,gomot_a.0104.eq.wav,1,13,3578.36061576,0.67413497,False,317
101,10,3,x,99,2021-11-23T14:57:49.866Z,gomot_a.0104.eq.wav,1,14,4217.59458808,3.92312888,False,317
101,10,3,x,99,2021-11-23T14:57:49.866Z,gomot_a.0104.eq.wav,1,15,4952.33712269,0.72861227,False,317
101,10,3,x,99,2021-11-23T14:57:49.866Z,gomot_a.0104.eq.wav,1,16,5796.85824570,-2.56514543,False,317
101,10,3,x,99,2021-11-23T14:57:49.866Z,gomot_a.0104.eq.wav,1,17,6767.56008152,1.27648047,False,317
101,10,3,x,99,2021-11-23T14:57:49.866Z,gomot_a.0104.eq.wav,1,18,7883.29541175,-2.75414902,False,317
101,10,3,x,99,2021-11-23T14:57:49.866Z,gomot_a.0104.eq.wav,1,19,9165.73383021,0.66744908,False,317
101,10,3,x,99,2021-11-23T14:57:49.866Z,gomot_a.0104.eq.wav,1,20,10639.78260555,-3.97501939,False,317
101,10,3,x,99,2021-11-23T14:57:49.866Z,gomot_a.0104.eq.wav,1,21,12334.07042541,2.25265956,False,317
101,10,3,x,99,2021-11-23T14:57:49.866Z,gomot_a.0104.eq.wav,1,22,14281.50341712,-3.29410045,False,317
101,10,3,x,99,2021-11-23T14:57:49.866Z,gomot_a.0104.eq.wav,1,23,16519.90424416,-1.10065147,False,317
101,10,3,x,99,2021-11-23T14:57:49.866Z,gomot_a.0104.eq.wav,1,24,19092.74669051,-4.94752012,False,317
101,10,3,x,99,2021-11-23T14:57:49.866Z,gomot_a.0104.eq.wav,1,25,22050.00000000,2.24874738,False,317
101,11,3,x,99,2021-11-23T14:57:49.866Z,gomot_a.0355.eq.wav,0,0,0.00000000,-1.43036862,False,307
101,11,3,x,99,2021-11-23T14:57:49.866Z,gomot_a.0355.eq.wav,0,1,104.58767290,-0.19752320,False,307
101,11,3,x,99,2021-11-23T14:57:49.866Z,gomot_a.0355.eq.wav,0,2,224.80189054,-2.41956719,False,307
101,11,3,x,99,2021-11-23T14:57:49.866Z,gomot_a.0355.eq.wav,0,3,362.97743001,3.62438431,False,307
101,11,3,x,99,2021-11-23T14:57:49.866Z,gomot_a.0355.eq.wav,0,4,521.79790965,3.84456768,False,307
101,11,3,x,99,2021-11-23T14:57:49.866Z,gomot_a.0355.eq.wav,0,5,704.34790983,3.96047193,False,307
101,11,3,x,99,2021-11-23T14:57:49.866Z,gomot_a.0355.eq.wav,0,6,914.17288101,-1.37202598,False,307
101,11,3,x,99,2021-11-23T14:57:49.866Z,gomot_a.0355.eq.wav,0,7,1155.34800284,0.16688930,False,307
101,11,3,x,99,2021-11-23T14:57:49.866Z,gomot_a.0355.eq.wav,0,8,1432.55733147,-0.84054217,False,307
101,11,3,x,99,2021-11-23T14:57:49.866Z,gomot_a.0355.eq.wav,0,9,1751.18477235,-2.61244304,False,307
101,11,3,x,99,2021-11-23T14:57:49.866Z,gomot_a.0355.eq.wav,0,10,2117.41864548,-2.54407081,False,307
101,11,3,x,99,2021-11-23T14:57:49.866Z,gomot_a.0355.eq.wav,0,11,2538.37187364,0.22929786,False,307
101,11,3,x,99,2021-11-23T14:57:49.866Z,gomot_a.0355.eq.wav,0,12,3022.22012828,3.87584580,False,307
101,11,3,x,99,2021-11-23T14:57:49.866Z,gomot_a.0355.eq.wav,0,13,3578.36061576,-3.85910871,False,307
101,11,3,x,99,2021-11-23T14:57:49.866Z,gomot_a.0355.eq.wav,0,14,4217.59458808,-1.86912952,False,307
101,11,3,x,99,2021-11-23T14:57:49.866Z,gomot_a.0355.eq.wav,0,15,4952.33712269,4.66560749,False,307
101,11,3,x,99,2021-11-23T14:57:49.866Z,gomot_a.0355.eq.wav,0,16,5796.85824570,3.49926001,False,307
101,11,3,x,99,2021-11-23T14:57:49.866Z,gomot_a.0355.eq.wav,0,17,6767.56008152,-1.63208010,False,307
101,11,3,x,99,2021-11-23T14:57:49.866Z,gomot_a.0355.eq.wav,0,18,7883.29541175,1.22493420,False,307
101,11,3,x,99,2021-11-23T14:57:49.866Z,gomot_a.0355.eq.wav,0,19,9165.73383021,2.28126656,False,307
101,11,3,x,99,2021-11-23T14:57:49.866Z,gomot_a.0355.eq.wav,0,20,10639.78260555,4.53158379,False,307
101,11,3,x,99,2021-11-23T14:57:49.866Z,gomot_a.0355.eq.wav,0,21,12334.07042541,-1.76092391,False,307
101,11,3,x,99,2021-11-23T14:57:49.866Z,gomot_a.0355.eq.wav,0,22,14281.50341712,1.19704518,False,307
101,11,3,x,99,2021-11-23T14:57:49.866Z,gomot_a.0355.eq.wav,0,23,16519.90424416,-3.34283116,False,307
101,11,3,x,99,2021-11-23T14:57:49.866Z,gomot_a.0355.eq.wav,0,24,19092.74669051,1.67741177,False,307
101,11,3,x,99,2021-11-23T14:57:49.866Z,gomot_a.0355.eq.wav,0,25,22050.00000000,3.54767478,False,307
101,11,3,x,99,2021-11-23T14:57:49.866Z,gomot_a.0213.eq.wav,1,0,0.00000000,2.25617545,True,307
101,11,3,x,99,2021-11-23T14:57:49.866Z,gomot_a.0213.eq.wav,1,1,104.58767290,3.04933609,True,307
101,11,3,x,99,2021-11-23T14:57:49.866Z,gomot_a.0213.eq.wav,1,2,224.80189054,-2.56606376,True,307
101,11,3,x,99,2021-11-23T14:57:49.866Z,gomot_a.0213.eq.wav,1,3,362.97743001,4.79526033,True,307
101,11,3,x,99,2021-11-23T14:57:49.866Z,gomot_a.0213.eq.wav,1,4,521.79790965,-3.92847399,True,307
101,11,3,x,99,2021-11-23T14:57:49.866Z,gomot_a.0213.eq.wav,1,5,704.34790983,4.77778184,True,307
101,11,3,x,99,2021-11-23T14:57:49.866Z,gomot_a.0213.eq.wav,1,6,914.17288101,4.09295767,True,307
101,11,3,x,99,2021-11-23T14:57:49.866Z,gomot_a.0213.eq.wav,1,7,1155.34800284,-0.66217020,True,307
101,11,3,x,99,2021-11-23T14:57:49.866Z,gomot_a.0213.eq.wav,1,8,1432.55733147,2.28147735,True,307
101,11,3,x,99,2021-11-23T14:57:49.866Z,gomot_a.0213.eq.wav,1,9,1751.18477235,-3.34810996,True,307
101,11,3,x,99,2021-11-23T14:57:49.866Z,gomot_a.0213.eq.wav,1,10,2117.41864548,4.69114146,True,307
101,11,3,x,99,2021-11-23T14:57:49.866Z,gomot_a.0213.eq.wav,1,11,2538.37187364,1.49605796,True,307
101,11,3,x,99,2021-11-23T14:57:49.866Z,gomot_a.0213.eq.wav,1,12,3022.22012828,1.90059376,True,307
101,11,3,x,99,2021-11-23T14:57:49.866Z,gomot_a.0213.eq.wav,1,13,3578.36061576,3.03963123,True,307
101,11,3,x,99,2021-11-23T14:57:49.866Z,gomot_a.0213.eq.wav,1,14,4217.59458808,-2.39645200,True,307
101,11,3,x,99,2021-11-23T14:57:49.866Z,gomot_a.0213.eq.wav,1,15,4952.33712269,3.18192236,True,307
101,11,3,x,99,2021-11-23T14:57:49.866Z,gomot_a.0213.eq.wav,1,16,5796.85824570,4.66696704,True,307
101,11,3,x,99,2021-11-23T14:57:49.866Z,gomot_a.0213.eq.wav,1,17,6767.56008152,-0.41970954,True,307
101,11,3,x,99,2021-11-23T14:57:49.866Z,gomot_a.0213.eq.wav,1,18,7883.29541175,1.06745296,True,307
101,11,3,x,99,2021-11-23T14:57:49.866Z,gomot_a.0213.eq.wav,1,19,9165.73383021,2.56619159,True,307
101,11,3,x,99,2021-11-23T14:57:49.866Z,gomot_a.0213.eq.wav,1,20,10639.78260555,3.76015697,True,307
101,11,3,x,99,2021-11-23T14:57:49.866Z,gomot_a.0213.eq.wav,1,21,12334.07042541,-0.42474975,True,307
101,11,3,x,99,2021-11-23T14:57:49.866Z,gomot_a.0213.eq.wav,1,22,14281.50341712,1.59032393,True,307
101,11,3,x,99,2021-11-23T14:57:49.866Z,gomot_a.0213.eq.wav,1,23,16519.90424416,-1.60506161,True,307
101,11,3,x,99,2021-11-23T14:57:49.866Z,gomot_a.0213.eq.wav,1,24,19092.74669051,-1.88412803,True,307
101,11,3,x,99,2021-11-23T14:57:49.866Z,gomot_a.0213.eq.wav,1,25,22050.00000000,-2.95973903,True,307
101,12,4,x,99,2021-11-23T14:57:49.866Z,gomot_a.0337.eq.wav,0,0,0.00000000,-4.95642503,False,302
101,12,4,x,99,2021-11-23T14:57:49.866Z,gomot_a.0337.eq.wav,0,1,104.58767290,-4.19504185,False,302
101,12,4,x,99,2021-11-23T14:57:49.866Z,gomot_a.0337.eq.wav,0,2,224.80189054,-0.13123279,False,302
101,12,4,x,99,2021-11-23T14:57:49.866Z,gomot_a.0337.eq.wav,0,3,362.97743001,-3.90183290,False,302
101,12,4,x,99,2021-11-23T14:57:49.866Z,gomot_a.0337.eq.wav,0,4,521.79790965,0.29037518,False,302
101,12,4,x,99,2021-11-23T14:57:49.866Z,gomot_a.0337.eq.wav,0,5,704.34790983,1.73076088,False,302
101,12,4,x,99,2021-11-23T14:57:49.866Z,gomot_a.0337.eq.wav,0,6,914.17288101,3.27022943,False,302
101,12,4,x,99,2021-11-23T14:57:49.866Z,gomot_a.0337.eq.wav,0,7,1155.34800284,0.28673297,False,302
101,12,4,x,99,2021-11-23T14:57:49.866Z,gomot_a.0337.eq.wav,0,8,1432.55733147,2.28552068,False,302
101,12,4,x,99,2021-11-23T14:57:49.866Z,gomot_a.0337.eq.wav,0,9,1751.18477235,4.71021717,False,302
101,12,4,x,99,2021-11-23T14:57:49.866Z,gomot_a.0337.eq.wav,0,10,2117.41864548,-3.61558027,False,302
101,12,4,x,99,2021-11-23T14:57:49.866Z,gomot_a.0337.eq.wav,0,11,2538.37187364,-2.82349456,False,302
101,12,4,x,99,2021-11-23T14:57:49.866Z,gomot_a.0337.eq.wav,0,12,3022.22012828,-3.43886010,False,302
101,12,4,x,99,2021-11-23T14:57:49.866Z,gomot_a.0337.eq.wav,0,13,3578.36061576,-3.59068514,False,302
101,12,4,x,99,2021-11-23T14:57:49.866Z,gomot_a.0337.eq.wav,0,14,4217.59458808,0.82870331,False,302
101,12,4,x,99,2021-11-23T14:57:49.866Z,gomot_a.0337.eq.wav,0,15,4952.33712269,-0.86359008,False,302
101,12,4,x,99,2021-11-23T14:57:49.866Z,gomot_a.0337.eq.wav,0,16,5796.85824570,0.96670816,False,302
101,12,4,x,99,2021-11-23T14:57:49.866Z,gomot_a.0337.eq.wav,0,17,6767.56008152,-2.79649524,False,302
101,12,4,x,99,2021-11-23T14:57:49.866Z,gomot_a.0337.eq.wav,0,18,7883.29541175,-2.02740626,False,302
101,12,4,x,99,2021-11-23T14:57:49.866Z,gomot_a.0337.eq.wav,0,19,9165.73383021,-0.26182128,False,302
101,12,4,x,99,2021-11-23T14:57:49.866Z,gomot_a.0337.eq.wav,0,20,10639.78260555,-4.50590494,False,302
101,12,4,x,99,2021-11-23T14:57:49.866Z,gomot_a.0337.eq.wav,0,21,12334.07042541,1.73512247,False,302
101,12,4,x,99,2021-11-23T14:57:49.866Z,gomot_a.0337.eq.wav,0,22,14281.50341712,-3.77960908,False,302
101,12,4,x,99,2021-11-23T14:57:49.866Z,gomot_a.0337.eq.wav,0,23,16519.90424416,1.24374499,False,302
101,12,4,x,99,2021-11-23T14:57:49.866Z,gomot_a.0337.eq.wav,0,24,19092.74669051,0.72123468,False,302
101,12,4,x,99,2021-11-23T14:57:49.866Z,gomot_a.0337.eq.wav,0,25,22050.00000000,4.35442616,False,302
101,12,4,x,99,2021-11-23T14:57:49.866Z,gomot_a.0150.eq.wav,1,0,0.00000000,-3.81759732,True,302
101,12,4,x,99,2021-11-23T14:57:49.866Z,gomot_a.0150.eq.wav,1,1,104.58767290,2.59276642,True,302
101,12,4,x,99,2021-11-23T14:57:49.866Z,gomot_a.0150.eq.wav,1,2,224.80189054,3.13544373,True,302
101,12,4,x,99,2021-11-23T14:57:49.866Z,gomot_a.0150.eq.wav,1,3,362.97743001,-0.79062006,True,302
101,12,4,x,99,2021-11-23T14:57:49.866Z,gomot_a.0150.eq.wav,1,4,521.79790965,-3.89656870,True,302
101,12,4,x,99,2021-11-23T14:57:49.866Z,gomot_a.0150.eq.wav,1,5,704.34790983,4.83024642,True,302
101,12,4,x,99,2021-11-23T14:57:49.866Z,gomot_a.0150.eq.wav,1,6,914.17288101,-1.65499426,True,302
101,12,4,x,99,2021-11-23T14:57:49.866Z,gomot_a.0150.eq.wav,1,7,1155.34800284,0.39005705,True,302
101,12,4,x,99,2021-11-23T14:57:49.866Z,gomot_a.0150.eq.wav,1,8,1432.55733147,-1.75912722,True,302
101,12,4,x,99,2021-11-23T14:57:49.866Z,gomot_a.0150.eq.wav,1,9,1751.18477235,-0.04898594,True,302
101,12,4,x,99,2021-11-23T14:57:49.866Z,gomot_a.0150.eq.wav,1,10,2117.41864548,-1.47130306,True,302
101,12,4,x,99,2021-11-23T14:57:49.866Z,gomot_a.0150.eq.wav,1,11,2538.37187364,3.72222640,True,302
101,12,4,x,99,2021-11-23T14:57:49.866Z,gomot_a.0150.eq.wav,1,12,3022.22012828,1.57657993,True,302
101,12,4,x,99,2021-11-23T14:57:49.866Z,gomot_a.0150.eq.wav,1,13,3578.36061576,-2.10804302,True,302
101,12,4,x,99,2021-11-23T14:57:49.866Z,gomot_a.0150.eq.wav,1,14,4217.59458808,-1.60137842,True,302
101,12,4,x,99,2021-11-23T14:57:49.866Z,gomot_a.0150.eq.wav,1,15,4952.33712269,-0.01529650,True,302
101,12,4,x,99,2021-11-23T14:57:49.866Z,gomot_a.0150.eq.wav,1,16,5796.85824570,4.04034642,True,302
101,12,4,x,99,2021-11-23T14:57:49.866Z,gomot_a.0150.eq.wav,1,17,6767.56008152,2.90664652,True,302
101,12,4,x,99,2021-11-23T14:57:49.866Z,gomot_a.0150.eq.wav,1,18,7883.29541175,-1.74164740,True,302
101,12,4,x,99,2021-11-23T14:57:49.866Z,gomot_a.0150.eq.wav,1,19,9165.73383021,2.48416342,True,302
101,12,4,x,99,2021-11-23T14:57:49.866Z,gomot_a.0150.eq.wav,1,20,10639.78260555,3.06730712,True,302
101,12,4,x,99,2021-11-23T14:57:49.866Z,gomot_a.0150.eq.wav,1,21,12334.07042541,-1.52686392,True,302
101,12,4,x,99,2021-11-23T14:57:49.866Z,gomot_a.0150.eq.wav,1,22,14281.50341712,4.85969600,True,302
101,12,4,x,99,2021-11-23T14:57:49.866Z,gomot_a.0150.eq.wav,1,23,16519.90424416,-2.26523376,True,302
101,12,4,x,99,2021-11-23T14:57:49.866Z,gomot_a.0150.eq.wav,1,24,19092.74669051,3.12530627,True,302
101,12,4,x,99,2021-11-23T14:57:49.866Z,gomot_a.0150.eq.wav,1,25,22050.00000000,-2.16929296,True,302
101,13,4,x,99,2021-11-23T14:57:49.866Z,gomot_a.0397.eq.wav,0,0,0.00000000,2.45515299,True,285
101,13,4,x,99,2021-11-23T14:57:49.866Z,gomot_a.0397.eq.wav,0,1,104.58767290,-0.38778847,True,285
101,13,4,x,99,2021-11-23T14:57:49.866Z,gomot_a.0397.eq.wav,0,2,224.80189054,1.36411209,True,285
101,13,4,x,99,2021-11-23T14:57:49.866Z,gomot_a.0397.eq.wav,0,3,362.97743001,1.31504865,True,285
101,13,4,x,99,2021-11-23T14:57:49.866Z,gomot_a.0397.eq.wav,0,4,521.79790965,-0.48159507,True,285
101,13,4,x,99,2021-11-23T14:57:49.866Z,gomot_a.0397.eq.wav,0,5,704.34790983,-4.80424996,True,285
101,13,4,x,99,2021-11-23T14:57:49.866Z,gomot_a.0397.eq.wav,0,6,914.17288101,-2.05451627,True,285
101,13,4,x,99,2021-11-23T14:57:49.866Z,gomot_a.0397.eq.wav,0,7,1155.34800284,-3.40333265,True,285
101,13,4,x,99,2021-11-23T14:57:49.866Z,gomot_a.0397.eq.wav,0,8,1432.55733147,-2.12319907,True,285
101,13,4,x,99,2021-11-23T14:57:49.866Z,gomot_a.0397.eq.wav,0,9,1751.18477235,3.88504321,True,285
101,13,4,x,99,2021-11-23T14:57:49.866Z,gomot_a.0397.eq.wav,0,10,2117.41864548,-1.45701392,True,285
101,13,4,x,99,2021-11-23T14:57:49.866Z,gomot_a.0397.eq.wav,0,11,2538.37187364,1.26099364,True,285
101,13,4,x,99,2021-11-23T14:57:49.866Z,gomot_a.0397.eq.wav,0,12,3022.22012828,0.21477285,True,285
101,13,4,x,99,2021-11-23T14:57:49.866Z,gomot_a.0397.eq.wav,0,13,3578.36061576,-1.12239361,True,285
101,13,4,x,99,2021-11-23T14:57:49.866Z,gomot_a.0397.eq.wav,0,14,4217.59458808,-4.04650849,True,285
101,13,4,x,99,2021-11-23T14:57:49.866Z,gomot_a.0397.eq.wav,0,15,4952.33712269,0.02438025,True,285
101,13,4,x,99,2021-11-23T14:57:49.866Z,gomot_a.0397.eq.wav,0,16,5796.85824570,-1.47451124,True,285
101,13,4,x,99,2021-11-23T14:57:49.866Z,gomot_a.0397.eq.wav,0,17,6767.56008152,0.97793301,True,285
101,13,4,x,99,2021-11-23T14:57:49.866Z,gomot_a.0397.eq.wav,0,18,7883.29541175,1.81905188,True,285
101,13,4,x,99,2021-11-23T14:57:49.866Z,gomot_a.0397.eq.wav,0,19,9165.73383021,-2.41903842,True,285
101,13,4,x,99,2021-11-23T14:57:49.866Z,gomot_a.0397.eq.wav,0,20,10639.78260555,-4.22506322,True,285
101,13,4,x,99,2021-11-23T14:57:49.866Z,gomot_a.0397.eq.wav,0,21,12334.07042541,2.48185905,True,285
101,13,4,x,99,2021-11-23T14:57:49.866Z,gomot_a.0397.eq.wav,0,22,14281.50341712,-3.88226228,True,285
101,13,4,x,99,2021-11-23T14:57:49.866Z,gomot_a.0397.eq.wav,0,23,16519.90424416,-3.56964974,True,285
101,13,4,x,99,2021-11-23T14:57:49.866Z,gomot_a.0397.eq.wav,0,24,19092.74669051,-0.73871603,True,285
101,13,4,x,99,2021-11-23T14:57:49.866Z,gomot_a.0397.eq.wav,0,25,22050.00000000,4.18132857,True,285
101,13,4,x,99,2021-11-23T14:57:49.866Z,gomot_a.0383.eq.wav,1,0,0.00000000,-2.03731841,False,285
101,13,4,x,99,2021-11-23T14:57:49.866Z,gomot_a.0383.eq.wav,1,1,104.58767290,1.17683026,False,285
101,13,4,x,99,2021-11-23T14:57:49.866Z,gomot_a.0383.eq.wav,1,2,224.80189054,-1.14687319,False,285
101,13,4,x,99,2021-11-23T14:57:49.866Z,gomot_a.0383.eq.wav,1,3,362.97743001,3.83236160,False,285
101,13,4,x,99,2021-11-23T14:57:49.866Z,gomot_a.0383.eq.wav,1,4,521.79790965,-4.65777216,False,285
101,13,4,x,99,2021-11-23T14:57:49.866Z,gomot_a.0383.eq.wav,1,5,704.34790983,-4.38405344,False,285
101,13,4,x,99,2021-11-23T14:57:49.866Z,gomot_a.0383.eq.wav,1,6,914.17288101,-2.72855517,False,285
101,13,4,x,99,2021-11-23T14:57:49.866Z,gomot_a.0383.eq.wav,1,7,1155.34800284,0.02454785,False,285
101,13,4,x,99,2021-11-23T14:57:49.866Z,gomot_a.0383.eq.wav,1,8,1432.55733147,4.81273490,False,285
101,13,4,x,99,2021-11-23T14:57:49.866Z,gomot_a.0383.eq.wav,1,9,1751.18477235,-2.97133236,False,285
101,13,4,x,99,2021-11-23T14:57:49.866Z,gomot_a.0383.eq.wav,1,10,2117.41864548,1.40655166,False,285
101,13,4,x,99,2021-11-23T14:57:49.866Z,gomot_a.0383.eq.wav,1,11,2538.37187364,-2.67485611,False,285
101,13,4,x,99,2021-11-23T14:57:49.866Z,gomot_a.0383.eq.wav,1,12,3022.22012828,4.89042800,False,285
101,13,4,x,99,2021-11-23T14:57:49.866Z,gomot_a.0383.eq.wav,1,13,3578.36061576,1.06568291,False,285
101,13,4,x,99,2021-11-23T14:57:49.866Z,gomot_a.0383.eq.wav,1,14,4217.59458808,-2.05309861,False,285
101,13,4,x,99,2021-11-23T14:57:49.866Z,gomot_a.0383.eq.wav,1,15,4952.33712269,-0.71083516,False,285
101,13,4,x,99,2021-11-23T14:57:49.866Z,gomot_a.0383.eq.wav,1,16,5796.85824570,1.43264808,False,285
101,13,4,x,99,2021-11-23T14:57:49.866Z,gomot_a.0383.eq.wav,1,17,6767.56008152,3.44630430,False,285
101,13,4,x,99,2021-11-23T14:57:49.866Z,gomot_a.0383.eq.wav,1,18,7883.29541175,0.99528388,False,285
101,13,4,x,99,2021-11-23T14:57:49.866Z,gomot_a.0383.eq.wav,1,19,9165.73383021,1.93107140,False,285
101,13,4,x,99,2021-11-23T14:57:49.866Z,gomot_a.0383.eq.wav,1,20,10639.78260555,-4.21825414,False,285
101,13,4,x,99,2021-11-23T14:57:49.866Z,gomot_a.0383.eq.wav,1,21,12334.07042541,4.51101257,False,285
101,13,4,x,99,2021-11-23T14:57:49.866Z,gomot_a.0383.eq.wav,1,22,14281.50341712,2.01897625,False,285
101,13,4,x,99,2021-11-23T14:57:49.866Z,gomot_a.0383.eq.wav,1,23,16519.90424416,2.62410027,False,285
101,13,4,x,99,2021-11-23T14:57:49.866Z,gomot_a.0383.eq.wav,1,24,19092.74669051,0.63975864,False,285
101,13,4,x,99,2021-11-23T14:57:49.866Z,gomot_a.0383.eq.wav,1,25,22050.00000000,4.06575124,False,285
101,14,4,x,99,2021-11-23T14:57:49.866Z,gomot_a.0107.eq.wav,0,0,0.00000000,-2.64769007,False,299
101,14,4,x,99,2021-11-23T14:57:49.866Z,gomot_a.0107.eq.wav,0,1,104.58767290,-4.07211687,False,299
101,14,4,x,99,2021-11-23T14:57:49.866Z,gomot_a.0107.eq.wav,0,2,224.80189054,3.27966644,False,299
101,14,4,x,99,2021-11-23T14:57:49.866Z,gomot_a.0107.eq.wav,0,3,362.97743001,1.05005336,False,299
101,14,4,x,99,2021-11-23T14:57:49.866Z,gomot_a.0107.eq.wav,0,4,521.79790965,-3.84784503,False,299
101,14,4,x,99,2021-11-23T14:57:49.866Z,gomot_a.0107.eq.wav,0,5,704.34790983,-1.38899602,False,299
101,14,4,x,99,2021-11-23T14:57:49.866Z,gomot_a.0107.eq.wav,0,6,914.17288101,1.32300409,False,299
101,14,4,x,99,2021-11-23T14:57:49.866Z,gomot_a.0107.eq.wav,0,7,1155.34800284,4.63478279,False,299
101,14,4,x,99,2021-11-23T14:57:49.866Z,gomot_a.0107.eq.wav,0,8,1432.55733147,-3.14583332,False,299
101,14,4,x,99,2021-11-23T14:57:49.866Z,gomot_a.0107.eq.wav,0,9,1751.18477235,3.99261148,False,299
101,14,4,x,99,2021-11-23T14:57:49.866Z,gomot_a.0107.eq.wav,0,10,2117.41864548,-2.05385687,False,299
101,14,4,x,99,2021-11-23T14:57:49.866Z,gomot_a.0107.eq.wav,0,11,2538.37187364,3.08079089,False,299
101,14,4,x,99,2021-11-23T14:57:49.866Z,gomot_a.0107.eq.wav,0,12,3022.22012828,1.16925524,False,299
101,14,4,x,99,2021-11-23T14:57:49.866Z,gomot_a.0107.eq.wav,0,13,3578.36061576,3.52203448,False,299
101,14,4,x,99,2021-11-23T14:57:49.866Z,gomot_a.0107.eq.wav,0,14,4217.59458808,-0.23853822,False,299
101,14,4,x,99,2021-11-23T14:57:49.866Z,gomot_a.0107.eq.wav,0,15,4952.33712269,-0.91756627,False,299
101,14,4,x,99,2021-11-23T14:57:49.866Z,gomot_a.0107.eq.wav,0,16,5796.85824570,-3.31192505,False,299
101,14,4,x,99,2021-11-23T14:57:49.866Z,gomot_a.0107.eq.wav,0,17,6767.56008152,-4.38512894,False,299
101,14,4,x,99,2021-11-23T14:57:49.866Z,gomot_a.0107.eq.wav,0,18,7883.29541175,-2.51800098,False,299
101,14,4,x,99,2021-11-23T14:57:49.866Z,gomot_a.0107.eq.wav,0,19,9165.73383021,-2.10574976,False,299
101,14,4,x,99,2021-11-23T14:57:49.866Z,gomot_a.0107.eq.wav,0,20,10639.78260555,3.54071549,False,299
101,14,4,x,99,2021-11-23T14:57:49.866Z,gomot_a.0107.eq.wav,0,21,12334.07042541,2.35448018,False,299
101,14,4,x,99,2021-11-23T14:57:49.866Z,gomot_a.0107.eq.wav,0,22,14281.50341712,-1.07974350,False,299
101,14,4,x,99,2021-11-23T14:57:49.866Z,gomot_a.0107.eq.wav,0,23,16519.90424416,-1.33975721,False,299
101,14,4,x,99,2021-11-23T14:57:49.866Z,gomot_a.0107.eq.wav,0,24,19092.74669051,0.06616751,False,299
101,14,4,x,99,2021-11-23T14:57:49.866Z,gomot_a.0107.eq.wav,0,25,22050.00000000,2.12804498,False,299
101,14,4,x,99,2021-11-23T14:57:49.866Z,gomot_a.0578.eq.wav,1,0,0.00000000,4.20844682,True,299
101,14,4,x,99,2021-11-23T14:57:49.866Z,gomot_a.0578.eq.wav,1,1,104.58767290,2.86758336,True,299
101,14,4,x,99,2021-11-23T14:57:49.866Z,gomot_a.0578.eq.wav,1,2,224.80189054,-0.68628960,True,299
101,14,4,x,99,2021-11-23T14:57:49.866Z,gomot_a.0578.eq.wav,1,3,362.97743001,-2.76324867,True,299
101,14,4,x,99,2021-11-23T14:57:49.866Z,gomot_a.0578.eq.wav,1,4,521.79790965,-0.29185262,True,299
101,14,4,x,99,2021-11-23T14:57:49.866Z,gomot_a.0578.eq.wav,1,5,704.34790983,-0.30678145,True,299
101,14,4,x,99,2021-11-23T14:57:49.866Z,gomot_a.0578.eq.wav,1,6,914.17288101,-2.57142097,True,299
101,14,4,x,99,2021-11-23T14:57:49.866Z,gomot_a.0578.eq.wav,1,7,1155.34800284,-3.80932064,True,299
101,14,4,x,99,2021-11-23T14:57:49.866Z,gomot_a.0578.eq.wav,1,8,1432.55733147,-0.70051686,True,299
101,14,4,x,99,2021-11-23T14:57:49.866Z,gomot_a.0578.eq.wav,1,9,1751.18477235,2.90082278,True,299
101,14,4,x,99,2021-11-23T14:57:49.866Z,gomot_a.0578.eq.wav,1,10,2117.41864548,4.10698001,True,299
101,14,4,x,99,2021-11-23T14:57:49.866Z,gomot_a.0578.eq.wav,1,11,2538.37187364,3.55591267,True,299
101,14,4,x,99,2021-11-23T14:57:49.866Z,gomot_a.0578.eq.wav,1,12,3022.22012828,3.90178720,True,299
101,14,4,x,99,2021-11-23T14:57:49.866Z,gomot_a.0578.eq.wav,1,13,3578.36061576,-3.58674890,True,299
101,14,4,x,99,2021-11-23T14:57:49.866Z,gomot_a.0578.eq.wav,1,14,4217.59458808,3.88489942,True,299
101,14,4,x,99,2021-11-23T14:57:49.866Z,gomot_a.0578.eq.wav,1,15,4952.33712269,-2.28910288,True,299
101,14,4,x,99,2021-11-23T14:57:49.866Z,gomot_a.0578.eq.wav,1,16,5796.85824570,-4.82517970,True,299
101,14,4,x,99,2021-11-23T14:57:49.866Z,gomot_a.0578.eq.wav,1,17,6767.56008152,-2.35397837,True,299
101,14,4,x,99,2021-11-23T14:57:49.866Z,gomot_a.0578.eq.wav,1,18,7883.29541175,3.66012955,True,299
101,14,4,x,99,2021-11-23T14:57:49.866Z,gomot_a.0578.eq.wav,1,19,9165.73383021,-0.85307470,True,299
101,14,4,x,99,2021-11-23T14:57:49.866Z,gomot_a.0578.eq.wav,1,20,10639.78260555,-1.19925440,True,299
101,14,4,x,99,2021-11-23T14:57:49.866Z,gomot_a.0578.eq.wav,1,21,12334.07042541,-3.69375990,True,299
101,14,4,x,99,2021-11-23T14:57:49.866Z,gomot_a.0578.eq.wav,1,22,14281.50341712,0.80950046,True,299
101,14,4,x,99,2021-11-23T14:57:49.866Z,gomot_a.0578.eq.wav,1,23,16519.90424416,-0.48824165,True,299
101,14,4,x,99,2021-11-23T14:57:49.866Z,gomot_a.0578.eq.wav,1,24,19092.74669051,-1.36097723,True,299
101,14,4,x,99,2021-11-23T14:57:49.866Z,gomot_a.0578.eq.wav,1,25,22050.00000000,-0.05926043,True,299
101,15,5,x,99,2021-11-23T14:57:49.866Z,gomot_a.0034.eq.wav,0,0,0.00000000,2.31795936,False,334
101,15,5,x,99,2021-11-23T14:57:49.866Z,gomot_a.0034.eq.wav,0,1,104.58767290,3.07152294,False,334
101,15,5,x,99,2021-11-23T14:57:49.866Z,gomot_a.0034.eq.wav,0,2,224.80189054,2.76780813,False,334
101,15,5,x,99,2021-11-23T14:57:49.866Z,gomot_a.0034.eq.wav,0,3,362.97743001,-1.60586257,False,334
101,15,5,x,99,2021-11-23T14:57:49.866Z,gomot_a.0034.eq.wav,0,4,521.79790965,2.57857750,False,334
101,15,5,x,99,2021-11-23T14:57:49.866Z,gomot_a.0034.eq.wav,0,5,704.34790983,0.79069720,False,334
101,15,5,x,99,2021-11-23T14:57:49.866Z,gomot_a.0034.eq.wav,0,6,914.17288101,-2.11311875,False,334
101,15,5,x,99,2021-11-23T14:57:49.866Z,gomot_a.0034.eq.wav,0,7,1155.34800284,0.97238462,False,334
101,15,5,x,99,2021-11-23T14:57:49.866Z,gomot_a.0034.eq.wav,0,8,1432.55733147,1.70697181,False,334
101,15,5,x,99,2021-11-23T14:57:49.866Z,gomot_a.0034.eq.wav,0,9,1751.18477235,3.45221427,False,334
101,15,5,x,99,2021-11-23T14:57:49.866Z,gomot_a.0034.eq.wav,0,10,2117.41864548,-3.49309313,False,334
101,15,5,x,99,2021-11-23T14:57:49.866Z,gomot_a.0034.eq.wav,0,11,2538.37187364,-0.27014492,False,334
101,15,5,x,99,2021-11-23T14:57:49.866Z,gomot_a.0034.eq.wav,0,12,3022.22012828,0.59208560,False,334
101,15,5,x,99,2021-11-23T14:57:49.866Z,gomot_a.0034.eq.wav,0,13,3578.36061576,4.17214015,False,334
101,15,5,x,99,2021-11-23T14:57:49.866Z,gomot_a.0034.eq.wav,0,14,4217.59458808,1.01483664,False,334
101,15,5,x,99,2021-11-23T14:57:49.866Z,gomot_a.0034.eq.wav,0,15,4952.33712269,-1.07892434,False,334
101,15,5,x,99,2021-11-23T14:57:49.866Z,gomot_a.0034.eq.wav,0,16,5796.85824570,0.96085306,False,334
101,15,5,x,99,2021-11-23T14:57:49.866Z,gomot_a.0034.eq.wav,0,17,6767.56008152,-2.79832594,False,334
101,15,5,x,99,2021-11-23T14:57:49.866Z,gomot_a.0034.eq.wav,0,18,7883.29541175,-0.69967729,False,334
101,15,5,x,99,2021-11-23T14:57:49.866Z,gomot_a.0034.eq.wav,0,19,9165.73383021,4.47543305,False,334
101,15,5,x,99,2021-11-23T14:57:49.866Z,gomot_a.0034.eq.wav,0,20,10639.78260555,2.75789497,False,334
101,15,5,x,99,2021-11-23T14:57:49.866Z,gomot_a.0034.eq.wav,0,21,12334.07042541,4.94773867,False,334
101,15,5,x,99,2021-11-23T14:57:49.866Z,gomot_a.0034.eq.wav,0,22,14281.50341712,1.36462841,False,334
101,15,5,x,99,2021-11-23T14:57:49.866Z,gomot_a.0034.eq.wav,0,23,16519.90424416,4.64113256,False,334
101,15,5,x,99,2021-11-23T14:57:49.866Z,gomot_a.0034.eq.wav,0,24,19092.74669051,-1.66085295,False,334
101,15,5,x,99,2021-11-23T14:57:49.866Z,gomot_a.0034.eq.wav,0,25,22050.00000000,4.13347830,False,334
101,15,5,x,99,2021-11-23T14:57:49.866Z,gomot_a.0178.eq.wav,1,0,0.00000000,-3.15831765,True,334
101,15,5,x,99,2021-11-23T14:57:49.866Z,gomot_a.0178.eq.wav,1,1,104.58767290,-2.60043554,True,334
101,15,5,x,99,2021-11-23T14:57:49.866Z,gomot_a.0178.eq.wav,1,2,224.80189054,2.84127221,True,334
101,15,5,x,99,2021-11-23T14:57:49.866Z,gomot_a.0178.eq.wav,1,3,362.97743001,-3.82461353,True,334
101,15,5,x,99,2021-11-23T14:57:49.866Z,gomot_a.0178.eq.wav,1,4,521.79790965,-2.59979456,True,334
101,15,5,x,99,2021-11-23T14:57:49.866Z,gomot_a.0178.eq.wav,1,5,704.34790983,0.04534940,True,334
101,15,5,x,99,2021-11-23T14:57:49.866Z,gomot_a.0178.eq.wav,1,6,914.17288101,3.68322431,True,334
101,15,5,x,99,2021-11-23T14:57:49.866Z,gomot_a.0178.eq.wav,1,7,1155.34800284,-0.16464530,True,334
101,15,5,x,99,2021-11-23T14:57:49.866Z,gomot_a.0178.eq.wav,1,8,1432.55733147,2.41747133,True,334
101,15,5,x,99,2021-11-23T14:57:49.866Z,gomot_a.0178.eq.wav,1,9,1751.18477235,-0.32889539,True,334
101,15,5,x,99,2021-11-23T14:57:49.866Z,gomot_a.0178.eq.wav,1,10,2117.41864548,1.24814216,True,334
101,15,5,x,99,2021-11-23T14:57:49.866Z,gomot_a.0178.eq.wav,1,11,2538.37187364,2.29145559,True,334
101,15,5,x,99,2021-11-23T14:57:49.866Z,gomot_a.0178.eq.wav,1,12,3022.22012828,0.47386576,True,334
101,15,5,x,99,2021-11-23T14:57:49.866Z,gomot_a.0178.eq.wav,1,13,3578.36061576,2.04531614,True,334
101,15,5,x,99,2021-11-23T14:57:49.866Z,gomot_a.0178.eq.wav,1,14,4217.59458808,2.03939489,True,334
101,15,5,x,99,2021-11-23T14:57:49.866Z,gomot_a.0178.eq.wav,1,15,4952.33712269,4.11975696,True,334
101,15,5,x,99,2021-11-23T14:57:49.866Z,gomot_a.0178.eq.wav,1,16,5796.85824570,-4.15520798,True,334
101,15,5,x,99,2021-11-23T14:57:49.866Z,gomot_a.0178.eq.wav,1,17,6767.56008152,-2.59881686,True,334
101,15,5,x,99,2021-11-23T14:57:49.866Z,gomot_a.0178.eq.wav,1,18,7883.29541175,4.85834883,True,334
101,15,5,x,99,2021-11-23T14:57:49.866Z,gomot_a.0178.eq.wav,1,19,9165.73383021,-0.89813604,True,334
101,15,5,x,99,2021-11-23T14:57:49.866Z,gomot_a.0178.eq.wav,1,20,10639.78260555,2.71393962,True,334
101,15,5,x,99,2021-11-23T14:57:49.866Z,gomot_a.0178.eq.wav,1,21,12334.07042541,4.00341448,True,334
101,15,5,x,99,2021-11-23T14:57:49.866Z,gomot_a.0178.eq.wav,1,22,14281.50341712,-2.50160387,True,334
101,15,5,x,99,2021-11-23T14:57:49.866Z,gomot_a.0178.eq.wav,1,23,16519.90424416,-4.87277755,True,334
101,15,5,x,99,2021-11-23T14:57:49.866Z,gomot_a.0178.eq.wav,1,24,19092.74669051,2.34062094,True,334
101,15,5,x,99,2021-11-23T14:57:49.866Z,gomot_a.0178.eq.wav,1,25,22050.00000000,-0.35282497,True,334
101,16,5,x,99,2021-11-23T14:57:49.866Z,gomot_a.0368.eq.wav,0,0,0.00000000,0.28430842,True,318
101,16,5,x,99,2021-11-23T14:57:49.866Z,gomot_a.0368.eq.wav,0,1,104.58767290,-2.76031342,True,318
101,16,5,x,99,2021-11-23T14:57:49.866Z,gomot_a.0368.eq.wav,0,2,224.80189054,-2.31746581,True,318
101,16,5,x,99,2021-11-23T14:57:49.866Z,gomot_a.0368.eq.wav,0,3,362.97743001,4.21313785,True,318
101,16,5,x,99,2021-11-23T14:57:49.866Z,gomot_a.0368.eq.wav,0,4,521.79790965,1.63402311,True,318
101,16,5,x,99,2021-11-23T14:57:49.866Z,gomot_a.0368.eq.wav,0,5,704.34790983,1.12902179,True,318
101,16,5,x,99,2021-11-23T14:57:49.866Z,gomot_a.0368.eq.wav,0,6,914.17288101,-1.10370987,True,318
101,16,5,x,99,2021-11-23T14:57:49.866Z,gomot_a.0368.eq.wav,0,7,1155.34800284,-0.91039358,True,318
101,16,5,x,99,2021-11-23T14:57:49.866Z,gomot_a.0368.eq.wav,0,8,1432.55733147,0.12964702,True,318
101,16,5,x,99,2021-11-23T14:57:49.866Z,gomot_a.0368.eq.wav,0,9,1751.18477235,3.09491342,True,318
101,16,5,x,99,2021-11-23T14:57:49.866Z,gomot_a.0368.eq.wav,0,10,2117.41864548,1.83529067,True,318
101,16,5,x,99,2021-11-23T14:57:49.866Z,gomot_a.0368.eq.wav,0,11,2538.37187364,-0.92418555,True,318
101,16,5,x,99,2021-11-23T14:57:49.866Z,gomot_a.0368.eq.wav,0,12,3022.22012828,2.46423339,True,318
101,16,5,x,99,2021-11-23T14:57:49.866Z,gomot_a.0368.eq.wav,0,13,3578.36061576,-1.90146963,True,318
101,16,5,x,99,2021-11-23T14:57:49.866Z,gomot_a.0368.eq.wav,0,14,4217.59458808,-2.42727291,True,318
101,16,5,x,99,2021-11-23T14:57:49.866Z,gomot_a.0368.eq.wav,0,15,4952.33712269,4.81174133,True,318
101,16,5,x,99,2021-11-23T14:57:49.866Z,gomot_a.0368.eq.wav,0,16,5796.85824570,2.80353589,True,318
101,16,5,x,99,2021-11-23T14:57:49.866Z,gomot_a.0368.eq.wav,0,17,6767.56008152,-0.42767224,True,318
101,16,5,x,99,2021-11-23T14:57:49.866Z,gomot_a.0368.eq.wav,0,18,7883.29541175,-3.17391830,True,318
101,16,5,x,99,2021-11-23T14:57:49.866Z,gomot_a.0368.eq.wav,0,19,9165.73383021,-0.00127026,True,318
101,16,5,x,99,2021-11-23T14:57:49.866Z,gomot_a.0368.eq.wav,0,20,10639.78260555,0.76508893,True,318
101,16,5,x,99,2021-11-23T14:57:49.866Z,gomot_a.0368.eq.wav,0,21,12334.07042541,-2.08963241,True,318
101,16,5,x,99,2021-11-23T14:57:49.866Z,gomot_a.0368.eq.wav,0,22,14281.50341712,-0.71904876,True,318
101,16,5,x,99,2021-11-23T14:57:49.866Z,gomot_a.0368.eq.wav,0,23,16519.90424416,2.17136678,True,318
101,16,5,x,99,2021-11-23T14:57:49.866Z,gomot_a.0368.eq.wav,0,24,19092.74669051,-3.55170395,True,318
101,16,5,x,99,2021-11-23T14:57:49.866Z,gomot_a.0368.eq.wav,0,25,22050.00000000,3.84911793,True,318
101,16,5,x,99,2021-11-23T14:57:49.866Z,gomot_a.0225.eq.wav,1,0,0.00000000,-2.48051225,False,318
101,16,5,x,99,2021-11-23T14:57:49.866Z,gomot_a.0225.eq.wav,1,1,104.58767290,2.44153032,False,318
101,16,5,x,99,2021-11-23T14:57:49.866Z,gomot_a.0225.eq.wav,1,2,224.80189054,2.00663351,False,318
101,16,5,x,99,2021-11-23T14:57:49.866Z,gomot_a.0225.eq.wav,1,3,362.97743001,2.32848138,False,318
101,16,5,x,99,2021-11-23T14:57:49.866Z,gomot_a.0225.eq.wav,1,4,521.79790965,2.63597179,False,318
101,16,5,x,99,2021-11-23T14:57:49.866Z,gomot_a.0225.eq.wav,1,5,704.34790983,-0.57059228,False,318
101,16,5,x,99,2021-11-23T14:57:49.866Z,gomot_a.0225.eq.wav,1,6,914.17288101,-1.69122012,False,318
101,16,5,x,99,2021-11-23T14:57:49.866Z,gomot_a.0225.eq.wav,1,7,1155.34800284,4.94812396,False,318
101,16,5,x,99,2021-11-23T14:57:49.866Z,gomot_a.0225.eq.wav,1,8,1432.55733147,2.35059644,False,318
101,16,5,x,99,2021-11-23T14:57:49.866Z,gomot_a.0225.eq.wav,1,9,1751.18477235,4.47661193,False,318
101,16,5,x,99,2021-11-23T14:57:49.866Z,gomot_a.0225.eq.wav,1,10,2117.41864548,3.10639069,False,318
101,16,5,x,99,2021-11-23T14:57:49.866Z,gomot_a.0225.eq.wav,1,11,2538.37187364,1.74810496,False,318
101,16,5,x,99,2021-11-23T14:57:49.866Z,gomot_a.0225.eq.wav,1,12,3022.22012828,-4.02069082,False,318
101,16,5,x,99,2021-11-23T14:57:49.866Z,gomot_a.0225.eq.wav,1,13,3578.36061576,1.56459614,False,318
101,16,5,x,99,2021-11-23T14:57:49.866Z,gomot_a.0225.eq.wav,1,14,4217.59458808,0.70425751,False,318
101,16,5,x,99,2021-11-23T14:57:49.866Z,gomot_a.0225.eq.wav,1,15,4952.33712269,-4.27077728,False,318
101,16,5,x,99,2021-11-23T14:57:49.866Z,gomot_a.0225.eq.wav,1,16,5796.85824570,-0.65687967,False,318
101,16,5,x,99,2021-11-23T14:57:49.866Z,gomot_a.0225.eq.wav,1,17,6767.56008152,-1.49027743,False,318
101,16,5,x,99,2021-11-23T14:57:49.866Z,gomot_a.0225.eq.wav,1,18,7883.29541175,4.19737986,False,318
101,16,5,x,99,2021-11-23T14:57:49.866Z,gomot_a.0225.eq.wav,1,19,9165.73383021,-0.53971468,False,318
101,16,5,x,99,2021-11-23T14:57:49.866Z,gomot_a.0225.eq.wav,1,20,10639.78260555,0.17712097,False,318
101,16,5,x,99,2021-11-23T14:57:49.866Z,gomot_a.0225.eq.wav,1,21,12334.07042541,2.47346354,False,318
101,16,5,x,99,2021-11-23T14:57:49.866Z,gomot_a.0225.eq.wav,1,22,14281.50341712,-0.55432189,False,318
101,16,5,x,99,2021-11-23T14:57:49.866Z,gomot_a.0225.eq.wav,1,23,16519.90424416,-0.90202970,False,318
101,16,5,x,99,2021-11-23T14:57:49.866Z,gomot_a.0225.eq.wav,1,24,19092.74669051,-1.56825727,False,318
101,16,5,x,99,2021-11-23T14:57:49.866Z,gomot_a.0225.eq.wav,1,25,22050.00000000,1.17211223,False,318
101,17,5,x,99,2021-11-23T14:57:49.866Z,gomot_a.0459.eq.wav,0,0,0.00000000,3.32867127,False,323
101,17,5,x,99,2021-11-23T14:57:49.866Z,gomot_a.0459.eq.wav,0,1,104.58767290,3.71878801,False,323
101,17,5,x,99,2021-11-23T14:57:49.866Z,gomot_a.0459.eq.wav,0,2,224.80189054,-4.34181366,False,323
101,17,5,x,99,2021-11-23T14:57:49.866Z,gomot_a.0459.eq.wav,0,3,362.97743001,3.38684393,False,323
101,17,5,x,99,2021-11-23T14:57:49.866Z,gomot_a.0459.eq.wav,0,4,521.79790965,-0.13032405,False,323
101,17,5,x,99,2021-11-23T14:57:49.866Z,gomot_a.0459.eq.wav,0,5,704.34790983,-2.37414354,False,323
101,17,5,x,99,2021-11-23T14:57:49.866Z,gomot_a.0459.eq.wav,0,6,914.17288101,3.80854217,False,323
101,17,5,x,99,2021-11-23T14:57:49.866Z,gomot_a.0459.eq.wav,0,7,1155.34800284,-0.87928662,False,323
101,17,5,x,99,2021-11-23T14:57:49.866Z,gomot_a.0459.eq.wav,0,8,1432.55733147,4.77743403,False,323
101,17,5,x,99,2021-11-23T14:57:49.866Z,gomot_a.0459.eq.wav,0,9,1751.18477235,-3.22069303,False,323
101,17,5,x,99,2021-11-23T14:57:49.866Z,gomot_a.0459.eq.wav,0,10,2117.41864548,-1.74749264,False,323
101,17,5,x,99,2021-11-23T14:57:49.866Z,gomot_a.0459.eq.wav,0,11,2538.37187364,-3.92791966,False,323
101,17,5,x,99,2021-11-23T14:57:49.866Z,gomot_a.0459.eq.wav,0,12,3022.22012828,1.82989893,False,323
101,17,5,x,99,2021-11-23T14:57:49.866Z,gomot_a.0459.eq.wav,0,13,3578.36061576,4.28154584,False,323
101,17,5,x,99,2021-11-23T14:57:49.866Z,gomot_a.0459.eq.wav,0,14,4217.59458808,3.75243735,False,323
101,17,5,x,99,2021-11-23T14:57:49.866Z,gomot_a.0459.eq.wav,0,15,4952.33712269,0.80715158,False,323
101,17,5,x,99,2021-11-23T14:57:49.866Z,gomot_a.0459.eq.wav,0,16,5796.85824570,-2.78327208,False,323
101,17,5,x,99,2021-11-23T14:57:49.866Z,gomot_a.0459.eq.wav,0,17,6767.56008152,3.94936574,False,323
101,17,5,x,99,2021-11-23T14:57:49.866Z,gomot_a.0459.eq.wav,0,18,7883.29541175,-3.02023854,False,323
101,17,5,x,99,2021-11-23T14:57:49.866Z,gomot_a.0459.eq.wav,0,19,9165.73383021,3.50014291,False,323
101,17,5,x,99,2021-11-23T14:57:49.866Z,gomot_a.0459.eq.wav,0,20,10639.78260555,-0.17802520,False,323
101,17,5,x,99,2021-11-23T14:57:49.866Z,gomot_a.0459.eq.wav,0,21,12334.07042541,-1.12928587,False,323
101,17,5,x,99,2021-11-23T14:57:49.866Z,gomot_a.0459.eq.wav,0,22,14281.50341712,2.63405911,False,323
101,17,5,x,99,2021-11-23T14:57:49.866Z,gomot_a.0459.eq.wav,0,23,16519.90424416,-3.20487567,False,323
101,17,5,x,99,2021-11-23T14:57:49.866Z,gomot_a.0459.eq.wav,0,24,19092.74669051,0.22791109,False,323
101,17,5,x,99,2021-11-23T14:57:49.866Z,gomot_a.0459.eq.wav,0,25,22050.00000000,-0.02830421,False,323
101,17,5,x,99,2021-11-23T14:57:49.866Z,gomot_a.0138.eq.wav,1,0,0.00000000,1.39926541,True,323
101,17,5,x,99,2021-11-23T14:57:49.866Z,gomot_a.0138.eq.wav,1,1,104.58767290,1.25776627,True,323
101,17,5,x,99,2021-11-23T14:57:49.866Z,gomot_a.0138.eq.wav,1,2,224.80189054,-3.79803743,True,323
101,17,5,x,99,2021-11-23T14:57:49.866Z,gomot_a.0138.eq.wav,1,3,362.97743001,4.31209592,True,323
101,17,5,x,99,2021-11-23T14:57:49.866Z,gomot_a.0138.eq.wav,1,4,521.79790965,0.15905760,True,323
101,17,5,x,99,2021-11-23T14:57:49.866Z,gomot_a.0138.eq.wav,1,5,704.34790983,-1.49613461,True,323
101,17,5,x,99,2021-11-23T14:57:49.866Z,gomot_a.0138.eq.wav,1,6,914.17288101,-3.67532931,True,323
101,17,5,x,99,2021-11-23T14:57:49.866Z,gomot_a.0138.eq.wav,1,7,1155.34800284,-4.93892502,True,323
101,17,5,x,99,2021-11-23T14:57:49.866Z,gomot_a.0138.eq.wav,1,8,1432.55733147,3.08495923,True,323
101,17,5,x,99,2021-11-23T14:57:49.866Z,gomot_a.0138.eq.wav,1,9,1751.18477235,0.54522473,True,323
101,17,5,x,99,2021-11-23T14:57:49.866Z,gomot_a.0138.eq.wav,1,10,2117.41864548,3.96104567,True,323
101,17,5,x,99,2021-11-23T14:57:49.866Z,gomot_a.0138.eq.wav,1,11,2538.37187364,-2.46537206,True,323
101,17,5,x,99,2021-11-23T14:57:49.866Z,gomot_a.0138.eq.wav,1,12,3022.22012828,2.51266962,True,323
101,17,5,x,99,2021-11-23T14:57:49.866Z,gomot_a.0138.eq.wav,1,13,3578.36061576,1.42612025,True,323
101,17,5,x,99,2021-11-23T14:57:49.866Z,gomot_a.0138.eq.wav,1,14,4217.59458808,3.69472438,True,323
101,17,5,x,99,2021-11-23T14:57:49.866Z,gomot_a.0138.eq.wav,1,15,4952.33712269,4.91087409,True,323
101,17,5,x,99,2021-11-23T14:57:49.866Z,gomot_a.0138.eq.wav,1,16,5796.85824570,-2.17851818,True,323
101,17,5,x,99,2021-11-23T14:57:49.866Z,gomot_a.0138.eq.wav,1,17,6767.56008152,2.61591804,True,323
101,17,5,x,99,2021-11-23T14:57:49.866Z,gomot_a.0138.eq.wav,1,18,7883.29541175,1.09440152,True,323
101,17,5,x,99,2021-11-23T14:57:49.866Z,gomot_a.0138.eq.wav,1,19,9165.73383021,-2.73863990,True,323
101,17,5,x,99,2021-11-23T14:57:49.866Z,gomot_a.0138.eq.wav,1,20,10639.78260555,-4.62780433,True,323
101,17,5,x,99,2021-11-23T14:57:49.866Z,gomot_a.0138.eq.wav,1,21,12334.07042541,-1.63666138,True,323
101,17,5,x,99,2021-11-23T14:57:49.866Z,gomot_a.0138.eq.wav,1,22,14281.50341712,1.99480079,True,323
101,17,5,x,99,2021-11-23T14:57:49.866Z,gomot_a.0138.eq.wav,1,23,16519.90424416,4.40379248,True,323
101,17,5,x,99,2021-11-23T14:57:49.866Z,gomot_a.0138.eq.wav,1,24,19092.74669051,4.20282934,True,323
101,17,5,x,99,2021-11-23T14:57:49.866Z,gomot_a.0138.eq.wav,1,25,22050.00000000,-2.34794907,True,323
