subj,trial,block,sex,age,date,stim,stim_order,param_index,filter_freq,filter_gain,response,rt
101,0,0,kjkkdjzhecihenkz,33,2021-11-29T14:07:01.502Z,gomot_a.0084.eq.wav,0,0,0.00000000,-1.72133294,True,279
101,0,0,kjkkdjzhecihenkz,33,2021-11-29T14:07:01.502Z,gomot_a.0084.eq.wav,0,1,104.58767290,-1.40285193,True,279
101,0,0,kjkkdjzhecihenkz,33,2021-11-29T14:07:01.502Z,gomot_a.0084.eq.wav,0,2,224.80189054,-1.55117755,True,279
101,0,0,kjkkdjzhecihenkz,33,2021-11-29T14:07:01.502Z,gomot_a.0084.eq.wav,0,3,362.97743001,-1.08204490,True,279
101,0,0,kjkkdjzhecihenkz,33,2021-11-29T14:07:01.502Z,gomot_a.0084.eq.wav,0,4,521.79790965,-1.35549347,True,279
101,0,0,kjkkdjzhecihenkz,33,2021-11-29T14:07:01.502Z,gomot_a.0084.eq.wav,0,5,704.34790983,-2.94134550,True,279
101,0,0,kjkkdjzhecihenkz,33,2021-11-29T14:07:01.502Z,gomot_a.0084.eq.wav,0,6,914.17288101,-2.00643917,True,279
101,0,0,kjkkdjzhecihenkz,33,2021-11-29T14:07:01.502Z,gomot_a.0084.eq.wav,0,7,1155.34800284,-3.41002267,True,279
101,0,0,kjkkdjzhecihenkz,33,2021-11-29T14:07:01.502Z,gomot_a.0084.eq.wav,0,8,1432.55733147,-1.84449622,True,279
101,0,0,kjkkdjzhecihenkz,33,2021-11-29T14:07:01.502Z,gomot_a.0084.eq.wav,0,9,1751.18477235,1.45864564,True,279
101,0,0,kjkkdjzhecihenkz,33,2021-11-29T14:07:01.502Z,gomot_a.0084.eq.wav,0,10,2117.41864548,-0.23232524,True,279
101,0,0,kjkkdjzhecihenkz,33,2021-11-29T14:07:01.502Z,gomot_a.0084.eq.wav,0,11,2538.37187364,0.99936002,True,279
101,0,0,kjkkdjzhecihenkz,33,2021-11-29T14:07:01.502Z,gomot_a.0084.eq.wav,0,12,3022.22012828,-0.77432403,True,279
101,0,0,kjkkdjzhecihenkz,33,2021-11-29T14:07:01.502Z,gomot_a.0084.eq.wav,0,13,3578.36061576,-4.58036729,True,279
101,0,0,kjkkdjzhecihenkz,33,2021-11-29T14:07:01.502Z,gomot_a.0084.eq.wav,0,14,4217.59458808,4.89506565,True,279
101,0,0,kjkkdjzhecihenkz,33,2021-11-29T14:07:01.502Z,gomot_a.0084.eq.wav,0,15,4952.33712269,-4.11955317,True,279
101,0,0,kjkkdjzhecihenkz,33,2021-11-29T14:07:01.502Z,gomot_a.0084.eq.wav,0,16,5796.85824570,-0.17322789,True,279
101,0,0,kjkkdjzhecihenkz,33,2021-11-29T14:07:01.502Z,gomot_a.0084.eq.wav,0,17,6767.56008152,4.95430665,True,279
101,0,0,kjkkdjzhecihenkz,33,2021-11-29T14:07:01.502Z,gomot_a.0084.eq.wav,0,18,7883.29541175,0.14780172,True,279
101,0,0,kjkkdjzhecihenkz,33,2021-11-29T14:07:01.502Z,gomot_a.0084.eq.wav,0,19,9165.73383021,0.44620922,True,279
101,0,0,kjkkdjzhecihenkz,33,2021-11-29T14:07:01.502Z,gomot_a.0084.eq.wav,0,20,10639.78260555,-1.86623116,True,279
101,0,0,kjkkdjzhecihenkz,33,2021-11-29T14:07:01.502Z,gomot_a.0084.eq.wav,0,21,12334.07042541,3.13899458,True,279
101,0,0,kjkkdjzhecihenkz,33,2021-11-29T14:07:01.502Z,gomot_a.0084.eq.wav,0,22,14281.50341712,-1.78049362,True,279
101,0,0,kjkkdjzhecihenkz,33,2021-11-29T14:07:01.502Z,gomot_a.0084.eq.wav,0,23,16519.90424416,1.15265190,True,279
101,0,0,kjkkdjzhecihenkz,33,2021-11-29T14:07:01.502Z,gomot_a.0084.eq.wav,0,24,19092.74669051,-1.08903292,True,279
101,0,0,kjkkdjzhecihenkz,33,2021-11-29T14:07:01.502Z,gomot_a.0084.eq.wav,0,25,22050.00000000,-1.22487814,True,279
101,0,0,kjkkdjzhecihenkz,33,2021-11-29T14:07:01.502Z,gomot_a.0015.eq.wav,1,0,0.00000000,-0.27163483,False,279
101,0,0,kjkkdjzhecihenkz,33,2021-11-29T14:07:01.502Z,gomot_a.0015.eq.wav,1,1,104.58767290,0.14950406,False,279
101,0,0,kjkkdjzhecihenkz,33,2021-11-29T14:07:01.502Z,gomot_a.0015.eq.wav,1,2,224.80189054,2.53450768,False,279
101,0,0,kjkkdjzhecihenkz,33,2021-11-29T14:07:01.502Z,gomot_a.0015.eq.wav,1,3,362.97743001,3.55528357,False,279
101,0,0,kjkkdjzhecihenkz,33,2021-11-29T14:07:01.502Z,gomot_a.0015.eq.wav,1,4,521.79790965,-0.12821208,False,279
101,0,0,kjkkdjzhecihenkz,33,2021-11-29T14:07:01.502Z,gomot_a.0015.eq.wav,1,5,704.34790983,0.84110052,False,279
101,0,0,kjkkdjzhecihenkz,33,2021-11-29T14:07:01.502Z,gomot_a.0015.eq.wav,1,6,914.17288101,0.58007630,False,279
101,0,0,kjkkdjzhecihenkz,33,2021-11-29T14:07:01.502Z,gomot_a.0015.eq.wav,1,7,1155.34800284,-4.36902744,False,279
101,0,0,kjkkdjzhecihenkz,33,2021-11-29T14:07:01.502Z,gomot_a.0015.eq.wav,1,8,1432.55733147,-4.05698557,False,279
101,0,0,kjkkdjzhecihenkz,33,2021-11-29T14:07:01.502Z,gomot_a.0015.eq.wav,1,9,1751.18477235,2.24186292,False,279
101,0,0,kjkkdjzhecihenkz,33,2021-11-29T14:07:01.502Z,gomot_a.0015.eq.wav,1,10,2117.41864548,-4.83489611,False,279
101,0,0,kjkkdjzhecihenkz,33,2021-11-29T14:07:01.502Z,gomot_a.0015.eq.wav,1,11,2538.37187364,-2.81282801,False,279
101,0,0,kjkkdjzhecihenkz,33,2021-11-29T14:07:01.502Z,gomot_a.0015.eq.wav,1,12,3022.22012828,-0.37528951,False,279
101,0,0,kjkkdjzhecihenkz,33,2021-11-29T14:07:01.502Z,gomot_a.0015.eq.wav,1,13,3578.36061576,2.50684892,False,279
101,0,0,kjkkdjzhecihenkz,33,2021-11-29T14:07:01.502Z,gomot_a.0015.eq.wav,1,14,4217.59458808,2.25554555,False,279
101,0,0,kjkkdjzhecihenkz,33,2021-11-29T14:07:01.502Z,gomot_a.0015.eq.wav,1,15,4952.33712269,-3.28738348,False,279
101,0,0,kjkkdjzhecihenkz,33,2021-11-29T14:07:01.502Z,gomot_a.0015.eq.wav,1,16,5796.85824570,4.64214607,False,279
101,0,0,kjkkdjzhecihenkz,33,2021-11-29T14:07:01.502Z,gomot_a.0015.eq.wav,1,17,6767.56008152,1.40810172,False,279
101,0,0,kjkkdjzhecihenkz,33,2021-11-29T14:07:01.502Z,gomot_a.0015.eq.wav,1,18,7883.29541175,-1.92096956,False,279
101,0,0,kjkkdjzhecihenkz,33,2021-11-29T14:07:01.502Z,gomot_a.0015.eq.wav,1,19,9165.73383021,-1.91337113,False,279
101,0,0,kjkkdjzhecihenkz,33,2021-11-29T14:07:01.502Z,gomot_a.0015.eq.wav,1,20,10639.78260555,-2.64440286,False,279
101,0,0,kjkkdjzhecihenkz,33,2021-11-29T14:07:01.502Z,gomot_a.0015.eq.wav,1,21,12334.07042541,2.38363847,False,279
101,0,0,kjkkdjzhecihenkz,33,2021-11-29T14:07:01.502Z,gomot_a.0015.eq.wav,1,22,14281.50341712,2.64075062,False,279
101,0,0,kjkkdjzhecihenkz,33,2021-11-29T14:07:01.502Z,gomot_a.0015.eq.wav,1,23,16519.90424416,2.64128927,False,279
101,0,0,kjkkdjzhecihenkz,33,2021-11-29T14:07:01.502Z,gomot_a.0015.eq.wav,1,24,19092.74669051,-0.52220668,False,279
101,0,0,kjkkdjzhecihenkz,33,2021-11-29T14:07:01.502Z,gomot_a.0015.eq.wav,1,25,22050.00000000,3.51432133,False,279
101,1,0,kjkkdjzhecihenkz,33,2021-11-29T14:07:01.502Z,gomot_a.0083.eq.wav,0,0,0.00000000,-1.57463678,False,374
101,1,0,kjkkdjzhecihenkz,33,2021-11-29T14:07:01.502Z,gomot_a.0083.eq.wav,0,1,104.58767290,0.35415503,False,374
101,1,0,kjkkdjzhecihenkz,33,2021-11-29T14:07:01.502Z,gomot_a.0083.eq.wav,0,2,224.80189054,-4.87774726,False,374
101,1,0,kjkkdjzhecihenkz,33,2021-11-29T14:07:01.502Z,gomot_a.0083.eq.wav,0,3,362.97743001,1.16658728,False,374
101,1,0,kjkkdjzhecihenkz,33,2021-11-29T14:07:01.502Z,gomot_a.0083.eq.wav,0,4,521.79790965,1.86330852,False,374
101,1,0,kjkkdjzhecihenkz,33,2021-11-29T14:07:01.502Z,gomot_a.0083.eq.wav,0,5,704.34790983,3.89530619,False,374
101,1,0,kjkkdjzhecihenkz,33,2021-11-29T14:07:01.502Z,gomot_a.0083.eq.wav,0,6,914.17288101,-4.58596069,False,374
101,1,0,kjkkdjzhecihenkz,33,2021-11-29T14:07:01.502Z,gomot_a.0083.eq.wav,0,7,1155.34800284,-1.30019220,False,374
101,1,0,kjkkdjzhecihenkz,33,2021-11-29T14:07:01.502Z,gomot_a.0083.eq.wav,0,8,1432.55733147,4.19563655,False,374
101,1,0,kjkkdjzhecihenkz,33,2021-11-29T14:07:01.502Z,gomot_a.0083.eq.wav,0,9,1751.18477235,-1.58310070,False,374
101,1,0,kjkkdjzhecihenkz,33,2021-11-29T14:07:01.502Z,gomot_a.0083.eq.wav,0,10,2117.41864548,-4.86618553,False,374
101,1,0,kjkkdjzhecihenkz,33,2021-11-29T14:07:01.502Z,gomot_a.0083.eq.wav,0,11,2538.37187364,-0.30063484,False,374
101,1,0,kjkkdjzhecihenkz,33,2021-11-29T14:07:01.502Z,gomot_a.0083.eq.wav,0,12,3022.22012828,0.45428118,False,374
101,1,0,kjkkdjzhecihenkz,33,2021-11-29T14:07:01.502Z,gomot_a.0083.eq.wav,0,13,3578.36061576,-0.25281106,False,374
101,1,0,kjkkdjzhecihenkz,33,2021-11-29T14:07:01.502Z,gomot_a.0083.eq.wav,0,14,4217.59458808,2.88931580,False,374
101,1,0,kjkkdjzhecihenkz,33,2021-11-29T14:07:01.502Z,gomot_a.0083.eq.wav,0,15,4952.33712269,-3.80315762,False,374
101,1,0,kjkkdjzhecihenkz,33,2021-11-29T14:07:01.502Z,gomot_a.0083.eq.wav,0,16,5796.85824570,3.97665789,False,374
101,1,0,kjkkdjzhecihenkz,33,2021-11-29T14:07:01.502Z,gomot_a.0083.eq.wav,0,17,6767.56008152,4.81232803,False,374
101,1,0,kjkkdjzhecihenkz,33,2021-11-29T14:07:01.502Z,gomot_a.0083.eq.wav,0,18,7883.29541175,-2.38673057,False,374
101,1,0,kjkkdjzhecihenkz,33,2021-11-29T14:07:01.502Z,gomot_a.0083.eq.wav,0,19,9165.73383021,2.09366960,False,374
101,1,0,kjkkdjzhecihenkz,33,2021-11-29T14:07:01.502Z,gomot_a.0083.eq.wav,0,20,10639.78260555,4.05530591,False,374
101,1,0,kjkkdjzhecihenkz,33,2021-11-29T14:07:01.502Z,gomot_a.0083.eq.wav,0,21,12334.07042541,-2.67933947,False,374
101,1,0,kjkkdjzhecihenkz,33,2021-11-29T14:07:01.502Z,gomot_a.0083.eq.wav,0,22,14281.50341712,3.17218485,False,374
101,1,0,kjkkdjzhecihenkz,33,2021-11-29T14:07:01.502Z,gomot_a.0083.eq.wav,0,23,16519.90424416,2.77870773,False,374
101,1,0,kjkkdjzhecihenkz,33,2021-11-29T14:07:01.502Z,gomot_a.0083.eq.wav,0,24,19092.74669051,-2.03513287,False,374
101,1,0,kjkkdjzhecihenkz,33,2021-11-29T14:07:01.502Z,gomot_a.0083.eq.wav,0,25,22050.00000000,-3.67240514,False,374
101,1,0,kjkkdjzhecihenkz,33,2021-11-29T14:07:01.502Z,gomot_a.0046.eq.wav,1,0,0.00000000,-3.60273504,True,374
101,1,0,kjkkdjzhecihenkz,33,2021-11-29T14:07:01.502Z,gomot_a.0046.eq.wav,1,1,104.58767290,0.03963354,True,374
101,1,0,kjkkdjzhecihenkz,33,2021-11-29T14:07:01.502Z,gomot_a.0046.eq.wav,1,2,224.80189054,-1.39376076,True,374
101,1,0,kjkkdjzhecihenkz,33,2021-11-29T14:07:01.502Z,gomot_a.0046.eq.wav,1,3,362.97743001,4.25017895,True,374
101,1,0,kjkkdjzhecihenkz,33,2021-11-29T14:07:01.502Z,gomot_a.0046.eq.wav,1,4,521.79790965,0.65105748,True,374
101,1,0,kjkkdjzhecihenkz,33,2021-11-29T14:07:01.502Z,gomot_a.0046.eq.wav,1,5,704.34790983,-1.81995132,True,374
101,1,0,kjkkdjzhecihenkz,33,2021-11-29T14:07:01.502Z,gomot_a.0046.eq.wav,1,6,914.17288101,0.81909287,True,374
101,1,0,kjkkdjzhecihenkz,33,2021-11-29T14:07:01.502Z,gomot_a.0046.eq.wav,1,7,1155.34800284,-3.84833970,True,374
101,1,0,kjkkdjzhecihenkz,33,2021-11-29T14:07:01.502Z,gomot_a.0046.eq.wav,1,8,1432.55733147,-0.35946654,True,374
101,1,0,kjkkdjzhecihenkz,33,2021-11-29T14:07:01.502Z,gomot_a.0046.eq.wav,1,9,1751.18477235,-2.89956630,True,374
101,1,0,kjkkdjzhecihenkz,33,2021-11-29T14:07:01.502Z,gomot_a.0046.eq.wav,1,10,2117.41864548,0.43776068,True,374
101,1,0,kjkkdjzhecihenkz,33,2021-11-29T14:07:01.502Z,gomot_a.0046.eq.wav,1,11,2538.37187364,-0.11053798,True,374
101,1,0,kjkkdjzhecihenkz,33,2021-11-29T14:07:01.502Z,gomot_a.0046.eq.wav,1,12,3022.22012828,4.09018952,True,374
101,1,0,kjkkdjzhecihenkz,33,2021-11-29T14:07:01.502Z,gomot_a.0046.eq.wav,1,13,3578.36061576,-2.90408585,True,374
101,1,0,kjkkdjzhecihenkz,33,2021-11-29T14:07:01.502Z,gomot_a.0046.eq.wav,1,14,4217.59458808,-2.51283488,True,374
101,1,0,kjkkdjzhecihenkz,33,2021-11-29T14:07:01.502Z,gomot_a.0046.eq.wav,1,15,4952.33712269,-0.12270824,True,374
101,1,0,kjkkdjzhecihenkz,33,2021-11-29T14:07:01.502Z,gomot_a.0046.eq.wav,1,16,5796.85824570,1.39937266,True,374
101,1,0,kjkkdjzhecihenkz,33,2021-11-29T14:07:01.502Z,gomot_a.0046.eq.wav,1,17,6767.56008152,1.89996744,True,374
101,1,0,kjkkdjzhecihenkz,33,2021-11-29T14:07:01.502Z,gomot_a.0046.eq.wav,1,18,7883.29541175,2.87511044,True,374
101,1,0,kjkkdjzhecihenkz,33,2021-11-29T14:07:01.502Z,gomot_a.0046.eq.wav,1,19,9165.73383021,-2.09206272,True,374
101,1,0,kjkkdjzhecihenkz,33,2021-11-29T14:07:01.502Z,gomot_a.0046.eq.wav,1,20,10639.78260555,0.81967019,True,374
101,1,0,kjkkdjzhecihenkz,33,2021-11-29T14:07:01.502Z,gomot_a.0046.eq.wav,1,21,12334.07042541,4.91405871,True,374
101,1,0,kjkkdjzhecihenkz,33,2021-11-29T14:07:01.502Z,gomot_a.0046.eq.wav,1,22,14281.50341712,4.05986882,True,374
101,1,0,kjkkdjzhecihenkz,33,2021-11-29T14:07:01.502Z,gomot_a.0046.eq.wav,1,23,16519.90424416,-2.76560565,True,374
101,1,0,kjkkdjzhecihenkz,33,2021-11-29T14:07:01.502Z,gomot_a.0046.eq.wav,1,24,19092.74669051,3.68539463,True,374
101,1,0,kjkkdjzhecihenkz,33,2021-11-29T14:07:01.502Z,gomot_a.0046.eq.wav,1,25,22050.00000000,2.93108139,True,374
101,2,0,kjkkdjzhecihenkz,33,2021-11-29T14:07:01.502Z,gomot_a.0009.eq.wav,0,0,0.00000000,0.93314881,True,230
101,2,0,kjkkdjzhecihenkz,33,2021-11-29T14:07:01.502Z,gomot_a.0009.eq.wav,0,1,104.58767290,1.23880903,True,230
101,2,0,kjkkdjzhecihenkz,33,2021-11-29T14:07:01.502Z,gomot_a.0009.eq.wav,0,2,224.80189054,-4.58291686,True,230
101,2,0,kjkkdjzhecihenkz,33,2021-11-29T14:07:01.502Z,gomot_a.0009.eq.wav,0,3,362.97743001,-0.22086377,True,230
101,2,0,kjkkdjzhecihenkz,33,2021-11-29T14:07:01.502Z,gomot_a.0009.eq.wav,0,4,521.79790965,4.53993681,True,230
101,2,0,kjkkdjzhecihenkz,33,2021-11-29T14:07:01.502Z,gomot_a.0009.eq.wav,0,5,704.34790983,-3.42019497,True,230
101,2,0,kjkkdjzhecihenkz,33,2021-11-29T14:07:01.502Z,gomot_a.0009.eq.wav,0,6,914.17288101,3.48278428,True,230
101,2,0,kjkkdjzhecihenkz,33,2021-11-29T14:07:01.502Z,gomot_a.0009.eq.wav,0,7,1155.34800284,1.30191650,True,230
101,2,0,kjkkdjzhecihenkz,33,2021-11-29T14:07:01.502Z,gomot_a.0009.eq.wav,0,8,1432.55733147,0.96621465,True,230
101,2,0,kjkkdjzhecihenkz,33,2021-11-29T14:07:01.502Z,gomot_a.0009.eq.wav,0,9,1751.18477235,4.49464904,True,230
101,2,0,kjkkdjzhecihenkz,33,2021-11-29T14:07:01.502Z,gomot_a.0009.eq.wav,0,10,2117.41864548,1.98027076,True,230
101,2,0,kjkkdjzhecihenkz,33,2021-11-29T14:07:01.502Z,gomot_a.0009.eq.wav,0,11,2538.37187364,-0.55636593,True,230
101,2,0,kjkkdjzhecihenkz,33,2021-11-29T14:07:01.502Z,gomot_a.0009.eq.wav,0,12,3022.22012828,-4.02665610,True,230
101,2,0,kjkkdjzhecihenkz,33,2021-11-29T14:07:01.502Z,gomot_a.0009.eq.wav,0,13,3578.36061576,1.39972276,True,230
101,2,0,kjkkdjzhecihenkz,33,2021-11-29T14:07:01.502Z,gomot_a.0009.eq.wav,0,14,4217.59458808,0.62442549,True,230
101,2,0,kjkkdjzhecihenkz,33,2021-11-29T14:07:01.502Z,gomot_a.0009.eq.wav,0,15,4952.33712269,3.47829511,True,230
101,2,0,kjkkdjzhecihenkz,33,2021-11-29T14:07:01.502Z,gomot_a.0009.eq.wav,0,16,5796.85824570,-1.38480340,True,230
101,2,0,kjkkdjzhecihenkz,33,2021-11-29T14:07:01.502Z,gomot_a.0009.eq.wav,0,17,6767.56008152,1.47902115,True,230
101,2,0,kjkkdjzhecihenkz,33,2021-11-29T14:07:01.502Z,gomot_a.0009.eq.wav,0,18,7883.29541175,4.38854284,True,230
101,2,0,kjkkdjzhecihenkz,33,2021-11-29T14:07:01.502Z,gomot_a.0009.eq.wav,0,19,9165.73383021,1.87370980,True,230
101,2,0,kjkkdjzhecihenkz,33,2021-11-29T14:07:01.502Z,gomot_a.0009.eq.wav,0,20,10639.78260555,-0.21028166,True,230
101,2,0,kjkkdjzhecihenkz,33,2021-11-29T14:07:01.502Z,gomot_a.0009.eq.wav,0,21,12334.07042541,1.00367481,True,230
101,2,0,kjkkdjzhecihenkz,33,2021-11-29T14:07:01.502Z,gomot_a.0009.eq.wav,0,22,14281.50341712,4.29956213,True,230
101,2,0,kjkkdjzhecihenkz,33,2021-11-29T14:07:01.502Z,gomot_a.0009.eq.wav,0,23,16519.90424416,-3.93330650,True,230
101,2,0,kjkkdjzhecihenkz,33,2021-11-29T14:07:01.502Z,gomot_a.0009.eq.wav,0,24,19092.74669051,4.65407419,True,230
101,2,0,kjkkdjzhecihenkz,33,2021-11-29T14:07:01.502Z,gomot_a.0009.eq.wav,0,25,22050.00000000,1.30582720,True,230
101,2,0,kjkkdjzhecihenkz,33,2021-11-29T14:07:01.502Z,gomot_a.0003.eq.wav,1,0,0.00000000,2.98720375,False,230
101,2,0,kjkkdjzhecihenkz,33,2021-11-29T14:07:01.502Z,gomot_a.0003.eq.wav,1,1,104.58767290,4.17012362,False,230
101,2,0,kjkkdjzhecihenkz,33,2021-11-29T14:07:01.502Z,gomot_a.0003.eq.wav,1,2,224.80189054,-1.97180604,False,230
101,2,0,kjkkdjzhecihenkz,33,2021-11-29T14:07:01.502Z,gomot_a.0003.eq.wav,1,3,362.97743001,-4.28115004,False,230
101,2,0,kjkkdjzhecihenkz,33,2021-11-29T14:07:01.502Z,gomot_a.0003.eq.wav,1,4,521.79790965,0.97548096,False,230
101,2,0,kjkkdjzhecihenkz,33,2021-11-29T14:07:01.502Z,gomot_a.0003.eq.wav,1,5,704.34790983,-0.72919709,False,230
101,2,0,kjkkdjzhecihenkz,33,2021-11-29T14:07:01.502Z,gomot_a.0003.eq.wav,1,6,914.17288101,-0.82374196,False,230
101,2,0,kjkkdjzhecihenkz,33,2021-11-29T14:07:01.502Z,gomot_a.0003.eq.wav,1,7,1155.34800284,0.25839582,False,230
101,2,0,kjkkdjzhecihenkz,33,2021-11-29T14:07:01.502Z,gomot_a.0003.eq.wav,1,8,1432.55733147,-1.84801817,False,230
101,2,0,kjkkdjzhecihenkz,33,2021-11-29T14:07:01.502Z,gomot_a.0003.eq.wav,1,9,1751.18477235,-0.22009132,False,230
101,2,0,kjkkdjzhecihenkz,33,2021-11-29T14:07:01.502Z,gomot_a.0003.eq.wav,1,10,2117.41864548,-2.12908878,False,230
101,2,0,kjkkdjzhecihenkz,33,2021-11-29T14:07:01.502Z,gomot_a.0003.eq.wav,1,11,2538.37187364,1.12532798,False,230
101,2,0,kjkkdjzhecihenkz,33,2021-11-29T14:07:01.502Z,gomot_a.0003.eq.wav,1,12,3022.22012828,-0.14817055,False,230
101,2,0,kjkkdjzhecihenkz,33,2021-11-29T14:07:01.502Z,gomot_a.0003.eq.wav,1,13,3578.36061576,-0.70429606,False,230
101,2,0,kjkkdjzhecihenkz,33,2021-11-29T14:07:01.502Z,gomot_a.0003.eq.wav,1,14,4217.59458808,1.40276192,False,230
101,2,0,kjkkdjzhecihenkz,33,2021-11-29T14:07:01.502Z,gomot_a.0003.eq.wav,1,15,4952.33712269,-0.39553689,False,230
101,2,0,kjkkdjzhecihenkz,33,2021-11-29T14:07:01.502Z,gomot_a.0003.eq.wav,1,16,5796.85824570,-1.40415132,False,230
101,2,0,kjkkdjzhecihenkz,33,2021-11-29T14:07:01.502Z,gomot_a.0003.eq.wav,1,17,6767.56008152,-0.23938728,False,230
101,2,0,kjkkdjzhecihenkz,33,2021-11-29T14:07:01.502Z,gomot_a.0003.eq.wav,1,18,7883.29541175,-2.65916865,False,230
101,2,0,kjkkdjzhecihenkz,33,2021-11-29T14:07:01.502Z,gomot_a.0003.eq.wav,1,19,9165.73383021,-1.44677948,False,230
101,2,0,kjkkdjzhecihenkz,33,2021-11-29T14:07:01.502Z,gomot_a.0003.eq.wav,1,20,10639.78260555,1.54221546,False,230
101,2,0,kjkkdjzhecihenkz,33,2021-11-29T14:07:01.502Z,gomot_a.0003.eq.wav,1,21,12334.07042541,-2.95405369,False,230
101,2,0,kjkkdjzhecihenkz,33,2021-11-29T14:07:01.502Z,gomot_a.0003.eq.wav,1,22,14281.50341712,-1.92099263,False,230
101,2,0,kjkkdjzhecihenkz,33,2021-11-29T14:07:01.502Z,gomot_a.0003.eq.wav,1,23,16519.90424416,1.17350834,False,230
101,2,0,kjkkdjzhecihenkz,33,2021-11-29T14:07:01.502Z,gomot_a.0003.eq.wav,1,24,19092.74669051,2.78284103,False,230
101,2,0,kjkkdjzhecihenkz,33,2021-11-29T14:07:01.502Z,gomot_a.0003.eq.wav,1,25,22050.00000000,3.66063521,False,230
101,3,1,kjkkdjzhecihenkz,33,2021-11-29T14:07:01.502Z,gomot_a.0093.eq.wav,0,0,0.00000000,0.18532855,False,302
101,3,1,kjkkdjzhecihenkz,33,2021-11-29T14:07:01.502Z,gomot_a.0093.eq.wav,0,1,104.58767290,-2.48255958,False,302
101,3,1,kjkkdjzhecihenkz,33,2021-11-29T14:07:01.502Z,gomot_a.0093.eq.wav,0,2,224.80189054,-2.26932846,False,302
101,3,1,kjkkdjzhecihenkz,33,2021-11-29T14:07:01.502Z,gomot_a.0093.eq.wav,0,3,362.97743001,0.02329384,False,302
101,3,1,kjkkdjzhecihenkz,33,2021-11-29T14:07:01.502Z,gomot_a.0093.eq.wav,0,4,521.79790965,0.65237081,False,302
101,3,1,kjkkdjzhecihenkz,33,2021-11-29T14:07:01.502Z,gomot_a.0093.eq.wav,0,5,704.34790983,3.97335403,False,302
101,3,1,kjkkdjzhecihenkz,33,2021-11-29T14:07:01.502Z,gomot_a.0093.eq.wav,0,6,914.17288101,-0.12187932,False,302
101,3,1,kjkkdjzhecihenkz,33,2021-11-29T14:07:01.502Z,gomot_a.0093.eq.wav,0,7,1155.34800284,-4.41089817,False,302
101,3,1,kjkkdjzhecihenkz,33,2021-11-29T14:07:01.502Z,gomot_a.0093.eq.wav,0,8,1432.55733147,-1.86466769,False,302
101,3,1,kjkkdjzhecihenkz,33,2021-11-29T14:07:01.502Z,gomot_a.0093.eq.wav,0,9,1751.18477235,-0.32729385,False,302
101,3,1,kjkkdjzhecihenkz,33,2021-11-29T14:07:01.502Z,gomot_a.0093.eq.wav,0,10,2117.41864548,-3.10041691,False,302
101,3,1,kjkkdjzhecihenkz,33,2021-11-29T14:07:01.502Z,gomot_a.0093.eq.wav,0,11,2538.37187364,-3.83810534,False,302
101,3,1,kjkkdjzhecihenkz,33,2021-11-29T14:07:01.502Z,gomot_a.0093.eq.wav,0,12,3022.22012828,1.23320882,False,302
101,3,1,kjkkdjzhecihenkz,33,2021-11-29T14:07:01.502Z,gomot_a.0093.eq.wav,0,13,3578.36061576,-0.90887852,False,302
101,3,1,kjkkdjzhecihenkz,33,2021-11-29T14:07:01.502Z,gomot_a.0093.eq.wav,0,14,4217.59458808,-3.45505592,False,302
101,3,1,kjkkdjzhecihenkz,33,2021-11-29T14:07:01.502Z,gomot_a.0093.eq.wav,0,15,4952.33712269,-1.13606035,False,302
101,3,1,kjkkdjzhecihenkz,33,2021-11-29T14:07:01.502Z,gomot_a.0093.eq.wav,0,16,5796.85824570,2.43685875,False,302
101,3,1,kjkkdjzhecihenkz,33,2021-11-29T14:07:01.502Z,gomot_a.0093.eq.wav,0,17,6767.56008152,-0.56478358,False,302
101,3,1,kjkkdjzhecihenkz,33,2021-11-29T14:07:01.502Z,gomot_a.0093.eq.wav,0,18,7883.29541175,-3.97493042,False,302
101,3,1,kjkkdjzhecihenkz,33,2021-11-29T14:07:01.502Z,gomot_a.0093.eq.wav,0,19,9165.73383021,-0.93521911,False,302
101,3,1,kjkkdjzhecihenkz,33,2021-11-29T14:07:01.502Z,gomot_a.0093.eq.wav,0,20,10639.78260555,-2.56994628,False,302
101,3,1,kjkkdjzhecihenkz,33,2021-11-29T14:07:01.502Z,gomot_a.0093.eq.wav,0,21,12334.07042541,0.38835675,False,302
101,3,1,kjkkdjzhecihenkz,33,2021-11-29T14:07:01.502Z,gomot_a.0093.eq.wav,0,22,14281.50341712,2.72830301,False,302
101,3,1,kjkkdjzhecihenkz,33,2021-11-29T14:07:01.502Z,gomot_a.0093.eq.wav,0,23,16519.90424416,-0.30155661,False,302
101,3,1,kjkkdjzhecihenkz,33,2021-11-29T14:07:01.502Z,gomot_a.0093.eq.wav,0,24,19092.74669051,-0.13473000,False,302
101,3,1,kjkkdjzhecihenkz,33,2021-11-29T14:07:01.502Z,gomot_a.0093.eq.wav,0,25,22050.00000000,-1.62104468,False,302
101,3,1,kjkkdjzhecihenkz,33,2021-11-29T14:07:01.502Z,gomot_a.0060.eq.wav,1,0,0.00000000,-0.80599518,True,302
101,3,1,kjkkdjzhecihenkz,33,2021-11-29T14:07:01.502Z,gomot_a.0060.eq.wav,1,1,104.58767290,3.09392623,True,302
101,3,1,kjkkdjzhecihenkz,33,2021-11-29T14:07:01.502Z,gomot_a.0060.eq.wav,1,2,224.80189054,-3.98496594,True,302
101,3,1,kjkkdjzhecihenkz,33,2021-11-29T14:07:01.502Z,gomot_a.0060.eq.wav,1,3,362.97743001,3.50170294,True,302
101,3,1,kjkkdjzhecihenkz,33,2021-11-29T14:07:01.502Z,gomot_a.0060.eq.wav,1,4,521.79790965,-1.28287104,True,302
101,3,1,kjkkdjzhecihenkz,33,2021-11-29T14:07:01.502Z,gomot_a.0060.eq.wav,1,5,704.34790983,3.67761809,True,302
101,3,1,kjkkdjzhecihenkz,33,2021-11-29T14:07:01.502Z,gomot_a.0060.eq.wav,1,6,914.17288101,-2.05689729,True,302
101,3,1,kjkkdjzhecihenkz,33,2021-11-29T14:07:01.502Z,gomot_a.0060.eq.wav,1,7,1155.34800284,3.57920902,True,302
101,3,1,kjkkdjzhecihenkz,33,2021-11-29T14:07:01.502Z,gomot_a.0060.eq.wav,1,8,1432.55733147,-2.42459513,True,302
101,3,1,kjkkdjzhecihenkz,33,2021-11-29T14:07:01.502Z,gomot_a.0060.eq.wav,1,9,1751.18477235,4.86607546,True,302
101,3,1,kjkkdjzhecihenkz,33,2021-11-29T14:07:01.502Z,gomot_a.0060.eq.wav,1,10,2117.41864548,0.49662775,True,302
101,3,1,kjkkdjzhecihenkz,33,2021-11-29T14:07:01.502Z,gomot_a.0060.eq.wav,1,11,2538.37187364,-0.43284882,True,302
101,3,1,kjkkdjzhecihenkz,33,2021-11-29T14:07:01.502Z,gomot_a.0060.eq.wav,1,12,3022.22012828,3.81250658,True,302
101,3,1,kjkkdjzhecihenkz,33,2021-11-29T14:07:01.502Z,gomot_a.0060.eq.wav,1,13,3578.36061576,-0.25406203,True,302
101,3,1,kjkkdjzhecihenkz,33,2021-11-29T14:07:01.502Z,gomot_a.0060.eq.wav,1,14,4217.59458808,2.30956016,True,302
101,3,1,kjkkdjzhecihenkz,33,2021-11-29T14:07:01.502Z,gomot_a.0060.eq.wav,1,15,4952.33712269,3.88843648,True,302
101,3,1,kjkkdjzhecihenkz,33,2021-11-29T14:07:01.502Z,gomot_a.0060.eq.wav,1,16,5796.85824570,-0.44539552,True,302
101,3,1,kjkkdjzhecihenkz,33,2021-11-29T14:07:01.502Z,gomot_a.0060.eq.wav,1,17,6767.56008152,-3.14997331,True,302
101,3,1,kjkkdjzhecihenkz,33,2021-11-29T14:07:01.502Z,gomot_a.0060.eq.wav,1,18,7883.29541175,-2.67943232,True,302
101,3,1,kjkkdjzhecihenkz,33,2021-11-29T14:07:01.502Z,gomot_a.0060.eq.wav,1,19,9165.73383021,-2.82368222,True,302
101,3,1,kjkkdjzhecihenkz,33,2021-11-29T14:07:01.502Z,gomot_a.0060.eq.wav,1,20,10639.78260555,-3.21026216,True,302
101,3,1,kjkkdjzhecihenkz,33,2021-11-29T14:07:01.502Z,gomot_a.0060.eq.wav,1,21,12334.07042541,-4.01324901,True,302
101,3,1,kjkkdjzhecihenkz,33,2021-11-29T14:07:01.502Z,gomot_a.0060.eq.wav,1,22,14281.50341712,2.21421196,True,302
101,3,1,kjkkdjzhecihenkz,33,2021-11-29T14:07:01.502Z,gomot_a.0060.eq.wav,1,23,16519.90424416,-2.52552107,True,302
101,3,1,kjkkdjzhecihenkz,33,2021-11-29T14:07:01.502Z,gomot_a.0060.eq.wav,1,24,19092.74669051,-2.89728568,True,302
101,3,1,kjkkdjzhecihenkz,33,2021-11-29T14:07:01.502Z,gomot_a.0060.eq.wav,1,25,22050.00000000,0.00981630,True,302
101,4,1,kjkkdjzhecihenkz,33,2021-11-29T14:07:01.502Z,gomot_a.0016.eq.wav,0,0,0.00000000,4.58819139,False,1045
101,4,1,kjkkdjzhecihenkz,33,2021-11-29T14:07:01.502Z,gomot_a.0016.eq.wav,0,1,104.58767290,0.38420905,False,1045
101,4,1,kjkkdjzhecihenkz,33,2021-11-29T14:07:01.502Z,gomot_a.0016.eq.wav,0,2,224.80189054,3.31355169,False,1045
101,4,1,kjkkdjzhecihenkz,33,2021-11-29T14:07:01.502Z,gomot_a.0016.eq.wav,0,3,362.97743001,-1.50075041,False,1045
101,4,1,kjkkdjzhecihenkz,33,2021-11-29T14:07:01.502Z,gomot_a.0016.eq.wav,0,4,521.79790965,-4.02152596,False,1045
101,4,1,kjkkdjzhecihenkz,33,2021-11-29T14:07:01.502Z,gomot_a.0016.eq.wav,0,5,704.34790983,1.32948124,False,1045
101,4,1,kjkkdjzhecihenkz,33,2021-11-29T14:07:01.502Z,gomot_a.0016.eq.wav,0,6,914.17288101,-4.09670217,False,1045
101,4,1,kjkkdjzhecihenkz,33,2021-11-29T14:07:01.502Z,gomot_a.0016.eq.wav,0,7,1155.34800284,1.32804793,False,1045
101,4,1,kjkkdjzhecihenkz,33,2021-11-29T14:07:01.502Z,gomot_a.0016.eq.wav,0,8,1432.55733147,-1.80515940,False,1045
101,4,1,kjkkdjzhecihenkz,33,2021-11-29T14:07:01.502Z,gomot_a.0016.eq.wav,0,9,1751.18477235,1.68101120,False,1045
101,4,1,kjkkdjzhecihenkz,33,2021-11-29T14:07:01.502Z,gomot_a.0016.eq.wav,0,10,2117.41864548,-0.20181321,False,1045
101,4,1,kjkkdjzhecihenkz,33,2021-11-29T14:07:01.502Z,gomot_a.0016.eq.wav,0,11,2538.37187364,-1.14576093,False,1045
101,4,1,kjkkdjzhecihenkz,33,2021-11-29T14:07:01.502Z,gomot_a.0016.eq.wav,0,12,3022.22012828,-4.49734638,False,1045
101,4,1,kjkkdjzhecihenkz,33,2021-11-29T14:07:01.502Z,gomot_a.0016.eq.wav,0,13,3578.36061576,0.48575382,False,1045
101,4,1,kjkkdjzhecihenkz,33,2021-11-29T14:07:01.502Z,gomot_a.0016.eq.wav,0,14,4217.59458808,1.52691912,False,1045
101,4,1,kjkkdjzhecihenkz,33,2021-11-29T14:07:01.502Z,gomot_a.0016.eq.wav,0,15,4952.33712269,0.14136143,False,1045
101,4,1,kjkkdjzhecihenkz,33,2021-11-29T14:07:01.502Z,gomot_a.0016.eq.wav,0,16,5796.85824570,2.06987844,False,1045
101,4,1,kjkkdjzhecihenkz,33,2021-11-29T14:07:01.502Z,gomot_a.0016.eq.wav,0,17,6767.56008152,-4.70966314,False,1045
101,4,1,kjkkdjzhecihenkz,33,2021-11-29T14:07:01.502Z,gomot_a.0016.eq.wav,0,18,7883.29541175,-4.84018484,False,1045
101,4,1,kjkkdjzhecihenkz,33,2021-11-29T14:07:01.502Z,gomot_a.0016.eq.wav,0,19,9165.73383021,1.08476750,False,1045
101,4,1,kjkkdjzhecihenkz,33,2021-11-29T14:07:01.502Z,gomot_a.0016.eq.wav,0,20,10639.78260555,-2.91798083,False,1045
101,4,1,kjkkdjzhecihenkz,33,2021-11-29T14:07:01.502Z,gomot_a.0016.eq.wav,0,21,12334.07042541,-4.52739269,False,1045
101,4,1,kjkkdjzhecihenkz,33,2021-11-29T14:07:01.502Z,gomot_a.0016.eq.wav,0,22,14281.50341712,-0.70374908,False,1045
101,4,1,kjkkdjzhecihenkz,33,2021-11-29T14:07:01.502Z,gomot_a.0016.eq.wav,0,23,16519.90424416,4.88451900,False,1045
101,4,1,kjkkdjzhecihenkz,33,2021-11-29T14:07:01.502Z,gomot_a.0016.eq.wav,0,24,19092.74669051,-4.43692226,False,1045
101,4,1,kjkkdjzhecihenkz,33,2021-11-29T14:07:01.502Z,gomot_a.0016.eq.wav,0,25,22050.00000000,-3.69134890,False,1045
101,4,1,kjkkdjzhecihenkz,33,2021-11-29T14:07:01.502Z,gomot_a.0074.eq.wav,1,0,0.00000000,3.20546573,True,1045
101,4,1,kjkkdjzhecihenkz,33,2021-11-29T14:07:01.502Z,gomot_a.0074.eq.wav,1,1,104.58767290,-1.02565774,True,1045
101,4,1,kjkkdjzhecihenkz,33,2021-11-29T14:07:01.502Z,gomot_a.0074.eq.wav,1,2,224.80189054,-0.11075854,True,1045
101,4,1,kjkkdjzhecihenkz,33,2021-11-29T14:07:01.502Z,gomot_a.0074.eq.wav,1,3,362.97743001,3.76114395,True,1045
101,4,1,kjkkdjzhecihenkz,33,2021-11-29T14:07:01.502Z,gomot_a.0074.eq.wav,1,4,521.79790965,-0.43053190,True,1045
101,4,1,kjkkdjzhecihenkz,33,2021-11-29T14:07:01.502Z,gomot_a.0074.eq.wav,1,5,704.34790983,-1.91086121,True,1045
101,4,1,kjkkdjzhecihenkz,33,2021-11-29T14:07:01.502Z,gomot_a.0074.eq.wav,1,6,914.17288101,-2.80966703,True,1045
101,4,1,kjkkdjzhecihenkz,33,2021-11-29T14:07:01.502Z,gomot_a.0074.eq.wav,1,7,1155.34800284,-1.85405237,True,1045
101,4,1,kjkkdjzhecihenkz,33,2021-11-29T14:07:01.502Z,gomot_a.0074.eq.wav,1,8,1432.55733147,-2.89325857,True,1045
101,4,1,kjkkdjzhecihenkz,33,2021-11-29T14:07:01.502Z,gomot_a.0074.eq.wav,1,9,1751.18477235,2.86084376,True,1045
101,4,1,kjkkdjzhecihenkz,33,2021-11-29T14:07:01.502Z,gomot_a.0074.eq.wav,1,10,2117.41864548,-0.20590252,True,1045
101,4,1,kjkkdjzhecihenkz,33,2021-11-29T14:07:01.502Z,gomot_a.0074.eq.wav,1,11,2538.37187364,-2.87611050,True,1045
101,4,1,kjkkdjzhecihenkz,33,2021-11-29T14:07:01.502Z,gomot_a.0074.eq.wav,1,12,3022.22012828,-3.39023531,True,1045
101,4,1,kjkkdjzhecihenkz,33,2021-11-29T14:07:01.502Z,gomot_a.0074.eq.wav,1,13,3578.36061576,1.21139741,True,1045
101,4,1,kjkkdjzhecihenkz,33,2021-11-29T14:07:01.502Z,gomot_a.0074.eq.wav,1,14,4217.59458808,-3.17707285,True,1045
101,4,1,kjkkdjzhecihenkz,33,2021-11-29T14:07:01.502Z,gomot_a.0074.eq.wav,1,15,4952.33712269,4.38540271,True,1045
101,4,1,kjkkdjzhecihenkz,33,2021-11-29T14:07:01.502Z,gomot_a.0074.eq.wav,1,16,5796.85824570,-0.90053135,True,1045
101,4,1,kjkkdjzhecihenkz,33,2021-11-29T14:07:01.502Z,gomot_a.0074.eq.wav,1,17,6767.56008152,2.17854294,True,1045
101,4,1,kjkkdjzhecihenkz,33,2021-11-29T14:07:01.502Z,gomot_a.0074.eq.wav,1,18,7883.29541175,1.56353546,True,1045
101,4,1,kjkkdjzhecihenkz,33,2021-11-29T14:07:01.502Z,gomot_a.0074.eq.wav,1,19,9165.73383021,0.07517963,True,1045
101,4,1,kjkkdjzhecihenkz,33,2021-11-29T14:07:01.502Z,gomot_a.0074.eq.wav,1,20,10639.78260555,1.73708192,True,1045
101,4,1,kjkkdjzhecihenkz,33,2021-11-29T14:07:01.502Z,gomot_a.0074.eq.wav,1,21,12334.07042541,-3.76163374,True,1045
101,4,1,kjkkdjzhecihenkz,33,2021-11-29T14:07:01.502Z,gomot_a.0074.eq.wav,1,22,14281.50341712,-3.72887766,True,1045
101,4,1,kjkkdjzhecihenkz,33,2021-11-29T14:07:01.502Z,gomot_a.0074.eq.wav,1,23,16519.90424416,0.84757217,True,1045
101,4,1,kjkkdjzhecihenkz,33,2021-11-29T14:07:01.502Z,gomot_a.0074.eq.wav,1,24,19092.74669051,1.95081121,True,1045
101,4,1,kjkkdjzhecihenkz,33,2021-11-29T14:07:01.502Z,gomot_a.0074.eq.wav,1,25,22050.00000000,4.80007404,True,1045
101,5,1,kjkkdjzhecihenkz,33,2021-11-29T14:07:01.502Z,gomot_a.0022.eq.wav,0,0,0.00000000,3.71285157,False,1361
101,5,1,kjkkdjzhecihenkz,33,2021-11-29T14:07:01.502Z,gomot_a.0022.eq.wav,0,1,104.58767290,-1.30205024,False,1361
101,5,1,kjkkdjzhecihenkz,33,2021-11-29T14:07:01.502Z,gomot_a.0022.eq.wav,0,2,224.80189054,-4.21852993,False,1361
101,5,1,kjkkdjzhecihenkz,33,2021-11-29T14:07:01.502Z,gomot_a.0022.eq.wav,0,3,362.97743001,-2.66767259,False,1361
101,5,1,kjkkdjzhecihenkz,33,2021-11-29T14:07:01.502Z,gomot_a.0022.eq.wav,0,4,521.79790965,-3.70052448,False,1361
101,5,1,kjkkdjzhecihenkz,33,2021-11-29T14:07:01.502Z,gomot_a.0022.eq.wav,0,5,704.34790983,1.61209468,False,1361
101,5,1,kjkkdjzhecihenkz,33,2021-11-29T14:07:01.502Z,gomot_a.0022.eq.wav,0,6,914.17288101,2.48963422,False,1361
101,5,1,kjkkdjzhecihenkz,33,2021-11-29T14:07:01.502Z,gomot_a.0022.eq.wav,0,7,1155.34800284,-3.20961613,False,1361
101,5,1,kjkkdjzhecihenkz,33,2021-11-29T14:07:01.502Z,gomot_a.0022.eq.wav,0,8,1432.55733147,-4.80333882,False,1361
101,5,1,kjkkdjzhecihenkz,33,2021-11-29T14:07:01.502Z,gomot_a.0022.eq.wav,0,9,1751.18477235,1.75358853,False,1361
101,5,1,kjkkdjzhecihenkz,33,2021-11-29T14:07:01.502Z,gomot_a.0022.eq.wav,0,10,2117.41864548,2.77083314,False,1361
101,5,1,kjkkdjzhecihenkz,33,2021-11-29T14:07:01.502Z,gomot_a.0022.eq.wav,0,11,2538.37187364,-3.66411514,False,1361
101,5,1,kjkkdjzhecihenkz,33,2021-11-29T14:07:01.502Z,gomot_a.0022.eq.wav,0,12,3022.22012828,1.24879386,False,1361
101,5,1,kjkkdjzhecihenkz,33,2021-11-29T14:07:01.502Z,gomot_a.0022.eq.wav,0,13,3578.36061576,1.81159616,False,1361
101,5,1,kjkkdjzhecihenkz,33,2021-11-29T14:07:01.502Z,gomot_a.0022.eq.wav,0,14,4217.59458808,1.46992240,False,1361
101,5,1,kjkkdjzhecihenkz,33,2021-11-29T14:07:01.502Z,gomot_a.0022.eq.wav,0,15,4952.33712269,-0.15903167,False,1361
101,5,1,kjkkdjzhecihenkz,33,2021-11-29T14:07:01.502Z,gomot_a.0022.eq.wav,0,16,5796.85824570,2.63007585,False,1361
101,5,1,kjkkdjzhecihenkz,33,2021-11-29T14:07:01.502Z,gomot_a.0022.eq.wav,0,17,6767.56008152,1.62885913,False,1361
101,5,1,kjkkdjzhecihenkz,33,2021-11-29T14:07:01.502Z,gomot_a.0022.eq.wav,0,18,7883.29541175,1.29750272,False,1361
101,5,1,kjkkdjzhecihenkz,33,2021-11-29T14:07:01.502Z,gomot_a.0022.eq.wav,0,19,9165.73383021,1.30835662,False,1361
101,5,1,kjkkdjzhecihenkz,33,2021-11-29T14:07:01.502Z,gomot_a.0022.eq.wav,0,20,10639.78260555,3.64067320,False,1361
101,5,1,kjkkdjzhecihenkz,33,2021-11-29T14:07:01.502Z,gomot_a.0022.eq.wav,0,21,12334.07042541,-0.87050373,False,1361
101,5,1,kjkkdjzhecihenkz,33,2021-11-29T14:07:01.502Z,gomot_a.0022.eq.wav,0,22,14281.50341712,1.85931036,False,1361
101,5,1,kjkkdjzhecihenkz,33,2021-11-29T14:07:01.502Z,gomot_a.0022.eq.wav,0,23,16519.90424416,-3.86463211,False,1361
101,5,1,kjkkdjzhecihenkz,33,2021-11-29T14:07:01.502Z,gomot_a.0022.eq.wav,0,24,19092.74669051,-1.52646148,False,1361
101,5,1,kjkkdjzhecihenkz,33,2021-11-29T14:07:01.502Z,gomot_a.0022.eq.wav,0,25,22050.00000000,-1.60972720,False,1361
101,5,1,kjkkdjzhecihenkz,33,2021-11-29T14:07:01.502Z,gomot_a.0017.eq.wav,1,0,0.00000000,2.60068134,True,1361
101,5,1,kjkkdjzhecihenkz,33,2021-11-29T14:07:01.502Z,gomot_a.0017.eq.wav,1,1,104.58767290,-1.52342266,True,1361
101,5,1,kjkkdjzhecihenkz,33,2021-11-29T14:07:01.502Z,gomot_a.0017.eq.wav,1,2,224.80189054,-1.44845784,True,1361
101,5,1,kjkkdjzhecihenkz,33,2021-11-29T14:07:01.502Z,gomot_a.0017.eq.wav,1,3,362.97743001,2.17702604,True,1361
101,5,1,kjkkdjzhecihenkz,33,2021-11-29T14:07:01.502Z,gomot_a.0017.eq.wav,1,4,521.79790965,4.84209909,True,1361
101,5,1,kjkkdjzhecihenkz,33,2021-11-29T14:07:01.502Z,gomot_a.0017.eq.wav,1,5,704.34790983,-0.47096828,True,1361
101,5,1,kjkkdjzhecihenkz,33,2021-11-29T14:07:01.502Z,gomot_a.0017.eq.wav,1,6,914.17288101,1.87075025,True,1361
101,5,1,kjkkdjzhecihenkz,33,2021-11-29T14:07:01.502Z,gomot_a.0017.eq.wav,1,7,1155.34800284,4.45728640,True,1361
101,5,1,kjkkdjzhecihenkz,33,2021-11-29T14:07:01.502Z,gomot_a.0017.eq.wav,1,8,1432.55733147,-0.16603527,True,1361
101,5,1,kjkkdjzhecihenkz,33,2021-11-29T14:07:01.502Z,gomot_a.0017.eq.wav,1,9,1751.18477235,4.50484461,True,1361
101,5,1,kjkkdjzhecihenkz,33,2021-11-29T14:07:01.502Z,gomot_a.0017.eq.wav,1,10,2117.41864548,-3.62984249,True,1361
101,5,1,kjkkdjzhecihenkz,33,2021-11-29T14:07:01.502Z,gomot_a.0017.eq.wav,1,11,2538.37187364,-1.08659768,True,1361
101,5,1,kjkkdjzhecihenkz,33,2021-11-29T14:07:01.502Z,gomot_a.0017.eq.wav,1,12,3022.22012828,0.53980322,True,1361
101,5,1,kjkkdjzhecihenkz,33,2021-11-29T14:07:01.502Z,gomot_a.0017.eq.wav,1,13,3578.36061576,-1.47702474,True,1361
101,5,1,kjkkdjzhecihenkz,33,2021-11-29T14:07:01.502Z,gomot_a.0017.eq.wav,1,14,4217.59458808,2.88622871,True,1361
101,5,1,kjkkdjzhecihenkz,33,2021-11-29T14:07:01.502Z,gomot_a.0017.eq.wav,1,15,4952.33712269,2.85542579,True,1361
101,5,1,kjkkdjzhecihenkz,33,2021-11-29T14:07:01.502Z,gomot_a.0017.eq.wav,1,16,5796.85824570,-1.61548559,True,1361
101,5,1,kjkkdjzhecihenkz,33,2021-11-29T14:07:01.502Z,gomot_a.0017.eq.wav,1,17,6767.56008152,0.24798557,True,1361
101,5,1,kjkkdjzhecihenkz,33,2021-11-29T14:07:01.502Z,gomot_a.0017.eq.wav,1,18,7883.29541175,0.38486498,True,1361
101,5,1,kjkkdjzhecihenkz,33,2021-11-29T14:07:01.502Z,gomot_a.0017.eq.wav,1,19,9165.73383021,0.99860440,True,1361
101,5,1,kjkkdjzhecihenkz,33,2021-11-29T14:07:01.502Z,gomot_a.0017.eq.wav,1,20,10639.78260555,4.42891190,True,1361
101,5,1,kjkkdjzhecihenkz,33,2021-11-29T14:07:01.502Z,gomot_a.0017.eq.wav,1,21,12334.07042541,-4.29037351,True,1361
101,5,1,kjkkdjzhecihenkz,33,2021-11-29T14:07:01.502Z,gomot_a.0017.eq.wav,1,22,14281.50341712,-3.64614129,True,1361
101,5,1,kjkkdjzhecihenkz,33,2021-11-29T14:07:01.502Z,gomot_a.0017.eq.wav,1,23,16519.90424416,3.04969004,True,1361
101,5,1,kjkkdjzhecihenkz,33,2021-11-29T14:07:01.502Z,gomot_a.0017.eq.wav,1,24,19092.74669051,3.04791655,True,1361
101,5,1,kjkkdjzhecihenkz,33,2021-11-29T14:07:01.502Z,gomot_a.0017.eq.wav,1,25,22050.00000000,1.22596015,True,1361
101,6,2,kjkkdjzhecihenkz,33,2021-11-29T14:07:01.502Z,gomot_a.0099.eq.wav,0,0,0.00000000,4.43280329,False,263
101,6,2,kjkkdjzhecihenkz,33,2021-11-29T14:07:01.502Z,gomot_a.0099.eq.wav,0,1,104.58767290,-3.16104983,False,263
101,6,2,kjkkdjzhecihenkz,33,2021-11-29T14:07:01.502Z,gomot_a.0099.eq.wav,0,2,224.80189054,-0.79373249,False,263
101,6,2,kjkkdjzhecihenkz,33,2021-11-29T14:07:01.502Z,gomot_a.0099.eq.wav,0,3,362.97743001,-3.43362612,False,263
101,6,2,kjkkdjzhecihenkz,33,2021-11-29T14:07:01.502Z,gomot_a.0099.eq.wav,0,4,521.79790965,1.42305722,False,263
101,6,2,kjkkdjzhecihenkz,33,2021-11-29T14:07:01.502Z,gomot_a.0099.eq.wav,0,5,704.34790983,-1.43025782,False,263
101,6,2,kjkkdjzhecihenkz,33,2021-11-29T14:07:01.502Z,gomot_a.0099.eq.wav,0,6,914.17288101,-3.58646358,False,263
101,6,2,kjkkdjzhecihenkz,33,2021-11-29T14:07:01.502Z,gomot_a.0099.eq.wav,0,7,1155.34800284,3.58616213,False,263
101,6,2,kjkkdjzhecihenkz,33,2021-11-29T14:07:01.502Z,gomot_a.0099.eq.wav,0,8,1432.55733147,-4.66312481,False,263
101,6,2,kjkkdjzhecihenkz,33,2021-11-29T14:07:01.502Z,gomot_a.0099.eq.wav,0,9,1751.18477235,0.64211120,False,263
101,6,2,kjkkdjzhecihenkz,33,2021-11-29T14:07:01.502Z,gomot_a.0099.eq.wav,0,10,2117.41864548,-0.76446046,False,263
101,6,2,kjkkdjzhecihenkz,33,2021-11-29T14:07:01.502Z,gomot_a.0099.eq.wav,0,11,2538.37187364,-3.81490134,False,263
101,6,2,kjkkdjzhecihenkz,33,2021-11-29T14:07:01.502Z,gomot_a.0099.eq.wav,0,12,3022.22012828,-0.68896332,False,263
101,6,2,kjkkdjzhecihenkz,33,2021-11-29T14:07:01.502Z,gomot_a.0099.eq.wav,0,13,3578.36061576,-3.76389624,False,263
101,6,2,kjkkdjzhecihenkz,33,2021-11-29T14:07:01.502Z,gomot_a.0099.eq.wav,0,14,4217.59458808,4.03540720,False,263
101,6,2,kjkkdjzhecihenkz,33,2021-11-29T14:07:01.502Z,gomot_a.0099.eq.wav,0,15,4952.33712269,-1.45895885,False,263
101,6,2,kjkkdjzhecihenkz,33,2021-11-29T14:07:01.502Z,gomot_a.0099.eq.wav,0,16,5796.85824570,-4.39368761,False,263
101,6,2,kjkkdjzhecihenkz,33,2021-11-29T14:07:01.502Z,gomot_a.0099.eq.wav,0,17,6767.56008152,-1.22174544,False,263
101,6,2,kjkkdjzhecihenkz,33,2021-11-29T14:07:01.502Z,gomot_a.0099.eq.wav,0,18,7883.29541175,3.92889028,False,263
101,6,2,kjkkdjzhecihenkz,33,2021-11-29T14:07:01.502Z,gomot_a.0099.eq.wav,0,19,9165.73383021,4.24175659,False,263
101,6,2,kjkkdjzhecihenkz,33,2021-11-29T14:07:01.502Z,gomot_a.0099.eq.wav,0,20,10639.78260555,-0.67722299,False,263
101,6,2,kjkkdjzhecihenkz,33,2021-11-29T14:07:01.502Z,gomot_a.0099.eq.wav,0,21,12334.07042541,-2.86246402,False,263
101,6,2,kjkkdjzhecihenkz,33,2021-11-29T14:07:01.502Z,gomot_a.0099.eq.wav,0,22,14281.50341712,1.88315985,False,263
101,6,2,kjkkdjzhecihenkz,33,2021-11-29T14:07:01.502Z,gomot_a.0099.eq.wav,0,23,16519.90424416,-1.81417010,False,263
101,6,2,kjkkdjzhecihenkz,33,2021-11-29T14:07:01.502Z,gomot_a.0099.eq.wav,0,24,19092.74669051,-3.40854647,False,263
101,6,2,kjkkdjzhecihenkz,33,2021-11-29T14:07:01.502Z,gomot_a.0099.eq.wav,0,25,22050.00000000,4.28686562,False,263
101,6,2,kjkkdjzhecihenkz,33,2021-11-29T14:07:01.502Z,gomot_a.0021.eq.wav,1,0,0.00000000,-2.08785398,True,263
101,6,2,kjkkdjzhecihenkz,33,2021-11-29T14:07:01.502Z,gomot_a.0021.eq.wav,1,1,104.58767290,3.48859031,True,263
101,6,2,kjkkdjzhecihenkz,33,2021-11-29T14:07:01.502Z,gomot_a.0021.eq.wav,1,2,224.80189054,-1.03003123,True,263
101,6,2,kjkkdjzhecihenkz,33,2021-11-29T14:07:01.502Z,gomot_a.0021.eq.wav,1,3,362.97743001,-0.08044277,True,263
101,6,2,kjkkdjzhecihenkz,33,2021-11-29T14:07:01.502Z,gomot_a.0021.eq.wav,1,4,521.79790965,0.78103546,True,263
101,6,2,kjkkdjzhecihenkz,33,2021-11-29T14:07:01.502Z,gomot_a.0021.eq.wav,1,5,704.34790983,0.45037339,True,263
101,6,2,kjkkdjzhecihenkz,33,2021-11-29T14:07:01.502Z,gomot_a.0021.eq.wav,1,6,914.17288101,-0.99987795,True,263
101,6,2,kjkkdjzhecihenkz,33,2021-11-29T14:07:01.502Z,gomot_a.0021.eq.wav,1,7,1155.34800284,-1.72725689,True,263
101,6,2,kjkkdjzhecihenkz,33,2021-11-29T14:07:01.502Z,gomot_a.0021.eq.wav,1,8,1432.55733147,-2.98440453,True,263
101,6,2,kjkkdjzhecihenkz,33,2021-11-29T14:07:01.502Z,gomot_a.0021.eq.wav,1,9,1751.18477235,2.07559584,True,263
101,6,2,kjkkdjzhecihenkz,33,2021-11-29T14:07:01.502Z,gomot_a.0021.eq.wav,1,10,2117.41864548,3.37978422,True,263
101,6,2,kjkkdjzhecihenkz,33,2021-11-29T14:07:01.502Z,gomot_a.0021.eq.wav,1,11,2538.37187364,0.82495736,True,263
101,6,2,kjkkdjzhecihenkz,33,2021-11-29T14:07:01.502Z,gomot_a.0021.eq.wav,1,12,3022.22012828,-1.91093385,True,263
101,6,2,kjkkdjzhecihenkz,33,2021-11-29T14:07:01.502Z,gomot_a.0021.eq.wav,1,13,3578.36061576,1.48415377,True,263
101,6,2,kjkkdjzhecihenkz,33,2021-11-29T14:07:01.502Z,gomot_a.0021.eq.wav,1,14,4217.59458808,-2.62777312,True,263
101,6,2,kjkkdjzhecihenkz,33,2021-11-29T14:07:01.502Z,gomot_a.0021.eq.wav,1,15,4952.33712269,0.68456148,True,263
101,6,2,kjkkdjzhecihenkz,33,2021-11-29T14:07:01.502Z,gomot_a.0021.eq.wav,1,16,5796.85824570,1.84805429,True,263
101,6,2,kjkkdjzhecihenkz,33,2021-11-29T14:07:01.502Z,gomot_a.0021.eq.wav,1,17,6767.56008152,-1.91090409,True,263
101,6,2,kjkkdjzhecihenkz,33,2021-11-29T14:07:01.502Z,gomot_a.0021.eq.wav,1,18,7883.29541175,3.92946300,True,263
101,6,2,kjkkdjzhecihenkz,33,2021-11-29T14:07:01.502Z,gomot_a.0021.eq.wav,1,19,9165.73383021,0.69635523,True,263
101,6,2,kjkkdjzhecihenkz,33,2021-11-29T14:07:01.502Z,gomot_a.0021.eq.wav,1,20,10639.78260555,-0.81073604,True,263
101,6,2,kjkkdjzhecihenkz,33,2021-11-29T14:07:01.502Z,gomot_a.0021.eq.wav,1,21,12334.07042541,0.87871908,True,263
101,6,2,kjkkdjzhecihenkz,33,2021-11-29T14:07:01.502Z,gomot_a.0021.eq.wav,1,22,14281.50341712,-2.24879652,True,263
101,6,2,kjkkdjzhecihenkz,33,2021-11-29T14:07:01.502Z,gomot_a.0021.eq.wav,1,23,16519.90424416,1.45885173,True,263
101,6,2,kjkkdjzhecihenkz,33,2021-11-29T14:07:01.502Z,gomot_a.0021.eq.wav,1,24,19092.74669051,-1.96957882,True,263
101,6,2,kjkkdjzhecihenkz,33,2021-11-29T14:07:01.502Z,gomot_a.0021.eq.wav,1,25,22050.00000000,2.94834061,True,263
101,7,2,kjkkdjzhecihenkz,33,2021-11-29T14:07:01.502Z,gomot_a.0011.eq.wav,0,0,0.00000000,-4.12561389,True,639
101,7,2,kjkkdjzhecihenkz,33,2021-11-29T14:07:01.502Z,gomot_a.0011.eq.wav,0,1,104.58767290,-2.31541116,True,639
101,7,2,kjkkdjzhecihenkz,33,2021-11-29T14:07:01.502Z,gomot_a.0011.eq.wav,0,2,224.80189054,-3.04306688,True,639
101,7,2,kjkkdjzhecihenkz,33,2021-11-29T14:07:01.502Z,gomot_a.0011.eq.wav,0,3,362.97743001,-4.06474299,True,639
101,7,2,kjkkdjzhecihenkz,33,2021-11-29T14:07:01.502Z,gomot_a.0011.eq.wav,0,4,521.79790965,-4.62341815,True,639
101,7,2,kjkkdjzhecihenkz,33,2021-11-29T14:07:01.502Z,gomot_a.0011.eq.wav,0,5,704.34790983,-3.96325332,True,639
101,7,2,kjkkdjzhecihenkz,33,2021-11-29T14:07:01.502Z,gomot_a.0011.eq.wav,0,6,914.17288101,0.97757984,True,639
101,7,2,kjkkdjzhecihenkz,33,2021-11-29T14:07:01.502Z,gomot_a.0011.eq.wav,0,7,1155.34800284,-0.59775428,True,639
101,7,2,kjkkdjzhecihenkz,33,2021-11-29T14:07:01.502Z,gomot_a.0011.eq.wav,0,8,1432.55733147,-2.40788511,True,639
101,7,2,kjkkdjzhecihenkz,33,2021-11-29T14:07:01.502Z,gomot_a.0011.eq.wav,0,9,1751.18477235,1.39700572,True,639
101,7,2,kjkkdjzhecihenkz,33,2021-11-29T14:07:01.502Z,gomot_a.0011.eq.wav,0,10,2117.41864548,-3.76765562,True,639
101,7,2,kjkkdjzhecihenkz,33,2021-11-29T14:07:01.502Z,gomot_a.0011.eq.wav,0,11,2538.37187364,-0.05195499,True,639
101,7,2,kjkkdjzhecihenkz,33,2021-11-29T14:07:01.502Z,gomot_a.0011.eq.wav,0,12,3022.22012828,2.69782837,True,639
101,7,2,kjkkdjzhecihenkz,33,2021-11-29T14:07:01.502Z,gomot_a.0011.eq.wav,0,13,3578.36061576,2.47065934,True,639
101,7,2,kjkkdjzhecihenkz,33,2021-11-29T14:07:01.502Z,gomot_a.0011.eq.wav,0,14,4217.59458808,4.58377767,True,639
101,7,2,kjkkdjzhecihenkz,33,2021-11-29T14:07:01.502Z,gomot_a.0011.eq.wav,0,15,4952.33712269,-0.13231159,True,639
101,7,2,kjkkdjzhecihenkz,33,2021-11-29T14:07:01.502Z,gomot_a.0011.eq.wav,0,16,5796.85824570,2.57890555,True,639
101,7,2,kjkkdjzhecihenkz,33,2021-11-29T14:07:01.502Z,gomot_a.0011.eq.wav,0,17,6767.56008152,2.43418886,True,639
101,7,2,kjkkdjzhecihenkz,33,2021-11-29T14:07:01.502Z,gomot_a.0011.eq.wav,0,18,7883.29541175,2.65074218,True,639
101,7,2,kjkkdjzhecihenkz,33,2021-11-29T14:07:01.502Z,gomot_a.0011.eq.wav,0,19,9165.73383021,1.54633138,True,639
101,7,2,kjkkdjzhecihenkz,33,2021-11-29T14:07:01.502Z,gomot_a.0011.eq.wav,0,20,10639.78260555,1.85326794,True,639
101,7,2,kjkkdjzhecihenkz,33,2021-11-29T14:07:01.502Z,gomot_a.0011.eq.wav,0,21,12334.07042541,-2.24421605,True,639
101,7,2,kjkkdjzhecihenkz,33,2021-11-29T14:07:01.502Z,gomot_a.0011.eq.wav,0,22,14281.50341712,3.77661356,True,639
101,7,2,kjkkdjzhecihenkz,33,2021-11-29T14:07:01.502Z,gomot_a.0011.eq.wav,0,23,16519.90424416,-3.58558961,True,639
101,7,2,kjkkdjzhecihenkz,33,2021-11-29T14:07:01.502Z,gomot_a.0011.eq.wav,0,24,19092.74669051,3.90920763,True,639
101,7,2,kjkkdjzhecihenkz,33,2021-11-29T14:07:01.502Z,gomot_a.0011.eq.wav,0,25,22050.00000000,-2.97551118,True,639
101,7,2,kjkkdjzhecihenkz,33,2021-11-29T14:07:01.502Z,gomot_a.0098.eq.wav,1,0,0.00000000,-0.13957971,False,639
101,7,2,kjkkdjzhecihenkz,33,2021-11-29T14:07:01.502Z,gomot_a.0098.eq.wav,1,1,104.58767290,3.48677778,False,639
101,7,2,kjkkdjzhecihenkz,33,2021-11-29T14:07:01.502Z,gomot_a.0098.eq.wav,1,2,224.80189054,-4.86622738,False,639
101,7,2,kjkkdjzhecihenkz,33,2021-11-29T14:07:01.502Z,gomot_a.0098.eq.wav,1,3,362.97743001,-3.77580588,False,639
101,7,2,kjkkdjzhecihenkz,33,2021-11-29T14:07:01.502Z,gomot_a.0098.eq.wav,1,4,521.79790965,-4.34750266,False,639
101,7,2,kjkkdjzhecihenkz,33,2021-11-29T14:07:01.502Z,gomot_a.0098.eq.wav,1,5,704.34790983,2.04737052,False,639
101,7,2,kjkkdjzhecihenkz,33,2021-11-29T14:07:01.502Z,gomot_a.0098.eq.wav,1,6,914.17288101,-1.65528958,False,639
101,7,2,kjkkdjzhecihenkz,33,2021-11-29T14:07:01.502Z,gomot_a.0098.eq.wav,1,7,1155.34800284,0.76941474,False,639
101,7,2,kjkkdjzhecihenkz,33,2021-11-29T14:07:01.502Z,gomot_a.0098.eq.wav,1,8,1432.55733147,-1.08417656,False,639
101,7,2,kjkkdjzhecihenkz,33,2021-11-29T14:07:01.502Z,gomot_a.0098.eq.wav,1,9,1751.18477235,3.82583519,False,639
101,7,2,kjkkdjzhecihenkz,33,2021-11-29T14:07:01.502Z,gomot_a.0098.eq.wav,1,10,2117.41864548,-2.97282215,False,639
101,7,2,kjkkdjzhecihenkz,33,2021-11-29T14:07:01.502Z,gomot_a.0098.eq.wav,1,11,2538.37187364,0.40477588,False,639
101,7,2,kjkkdjzhecihenkz,33,2021-11-29T14:07:01.502Z,gomot_a.0098.eq.wav,1,12,3022.22012828,2.15861503,False,639
101,7,2,kjkkdjzhecihenkz,33,2021-11-29T14:07:01.502Z,gomot_a.0098.eq.wav,1,13,3578.36061576,-1.29904866,False,639
101,7,2,kjkkdjzhecihenkz,33,2021-11-29T14:07:01.502Z,gomot_a.0098.eq.wav,1,14,4217.59458808,-3.47790082,False,639
101,7,2,kjkkdjzhecihenkz,33,2021-11-29T14:07:01.502Z,gomot_a.0098.eq.wav,1,15,4952.33712269,-2.77833429,False,639
101,7,2,kjkkdjzhecihenkz,33,2021-11-29T14:07:01.502Z,gomot_a.0098.eq.wav,1,16,5796.85824570,-2.91320308,False,639
101,7,2,kjkkdjzhecihenkz,33,2021-11-29T14:07:01.502Z,gomot_a.0098.eq.wav,1,17,6767.56008152,-3.42262494,False,639
101,7,2,kjkkdjzhecihenkz,33,2021-11-29T14:07:01.502Z,gomot_a.0098.eq.wav,1,18,7883.29541175,-0.54558025,False,639
101,7,2,kjkkdjzhecihenkz,33,2021-11-29T14:07:01.502Z,gomot_a.0098.eq.wav,1,19,9165.73383021,-3.51079789,False,639
101,7,2,kjkkdjzhecihenkz,33,2021-11-29T14:07:01.502Z,gomot_a.0098.eq.wav,1,20,10639.78260555,2.58571975,False,639
101,7,2,kjkkdjzhecihenkz,33,2021-11-29T14:07:01.502Z,gomot_a.0098.eq.wav,1,21,12334.07042541,-2.52432627,False,639
101,7,2,kjkkdjzhecihenkz,33,2021-11-29T14:07:01.502Z,gomot_a.0098.eq.wav,1,22,14281.50341712,4.62868098,False,639
101,7,2,kjkkdjzhecihenkz,33,2021-11-29T14:07:01.502Z,gomot_a.0098.eq.wav,1,23,16519.90424416,1.80161151,False,639
101,7,2,kjkkdjzhecihenkz,33,2021-11-29T14:07:01.502Z,gomot_a.0098.eq.wav,1,24,19092.74669051,-0.40292086,False,639
101,7,2,kjkkdjzhecihenkz,33,2021-11-29T14:07:01.502Z,gomot_a.0098.eq.wav,1,25,22050.00000000,3.89470509,False,639
101,8,2,kjkkdjzhecihenkz,33,2021-11-29T14:07:01.502Z,gomot_a.0002.eq.wav,0,0,0.00000000,4.99533491,False,251
101,8,2,kjkkdjzhecihenkz,33,2021-11-29T14:07:01.502Z,gomot_a.0002.eq.wav,0,1,104.58767290,2.48051103,False,251
101,8,2,kjkkdjzhecihenkz,33,2021-11-29T14:07:01.502Z,gomot_a.0002.eq.wav,0,2,224.80189054,-0.67893756,False,251
101,8,2,kjkkdjzhecihenkz,33,2021-11-29T14:07:01.502Z,gomot_a.0002.eq.wav,0,3,362.97743001,-0.94640202,False,251
101,8,2,kjkkdjzhecihenkz,33,2021-11-29T14:07:01.502Z,gomot_a.0002.eq.wav,0,4,521.79790965,-2.91650724,False,251
101,8,2,kjkkdjzhecihenkz,33,2021-11-29T14:07:01.502Z,gomot_a.0002.eq.wav,0,5,704.34790983,-2.74890495,False,251
101,8,2,kjkkdjzhecihenkz,33,2021-11-29T14:07:01.502Z,gomot_a.0002.eq.wav,0,6,914.17288101,1.59610554,False,251
101,8,2,kjkkdjzhecihenkz,33,2021-11-29T14:07:01.502Z,gomot_a.0002.eq.wav,0,7,1155.34800284,-3.31735326,False,251
101,8,2,kjkkdjzhecihenkz,33,2021-11-29T14:07:01.502Z,gomot_a.0002.eq.wav,0,8,1432.55733147,4.77536706,False,251
101,8,2,kjkkdjzhecihenkz,33,2021-11-29T14:07:01.502Z,gomot_a.0002.eq.wav,0,9,1751.18477235,0.45933659,False,251
101,8,2,kjkkdjzhecihenkz,33,2021-11-29T14:07:01.502Z,gomot_a.0002.eq.wav,0,10,2117.41864548,-0.63464625,False,251
101,8,2,kjkkdjzhecihenkz,33,2021-11-29T14:07:01.502Z,gomot_a.0002.eq.wav,0,11,2538.37187364,-1.43755889,False,251
101,8,2,kjkkdjzhecihenkz,33,2021-11-29T14:07:01.502Z,gomot_a.0002.eq.wav,0,12,3022.22012828,1.13251096,False,251
101,8,2,kjkkdjzhecihenkz,33,2021-11-29T14:07:01.502Z,gomot_a.0002.eq.wav,0,13,3578.36061576,0.19141899,False,251
101,8,2,kjkkdjzhecihenkz,33,2021-11-29T14:07:01.502Z,gomot_a.0002.eq.wav,0,14,4217.59458808,3.26018593,False,251
101,8,2,kjkkdjzhecihenkz,33,2021-11-29T14:07:01.502Z,gomot_a.0002.eq.wav,0,15,4952.33712269,-1.93208808,False,251
101,8,2,kjkkdjzhecihenkz,33,2021-11-29T14:07:01.502Z,gomot_a.0002.eq.wav,0,16,5796.85824570,4.20251800,False,251
101,8,2,kjkkdjzhecihenkz,33,2021-11-29T14:07:01.502Z,gomot_a.0002.eq.wav,0,17,6767.56008152,-4.35207866,False,251
101,8,2,kjkkdjzhecihenkz,33,2021-11-29T14:07:01.502Z,gomot_a.0002.eq.wav,0,18,7883.29541175,1.45116162,False,251
101,8,2,kjkkdjzhecihenkz,33,2021-11-29T14:07:01.502Z,gomot_a.0002.eq.wav,0,19,9165.73383021,-3.43417225,False,251
101,8,2,kjkkdjzhecihenkz,33,2021-11-29T14:07:01.502Z,gomot_a.0002.eq.wav,0,20,10639.78260555,-1.62895151,False,251
101,8,2,kjkkdjzhecihenkz,33,2021-11-29T14:07:01.502Z,gomot_a.0002.eq.wav,0,21,12334.07042541,0.55724529,False,251
101,8,2,kjkkdjzhecihenkz,33,2021-11-29T14:07:01.502Z,gomot_a.0002.eq.wav,0,22,14281.50341712,1.20930709,False,251
101,8,2,kjkkdjzhecihenkz,33,2021-11-29T14:07:01.502Z,gomot_a.0002.eq.wav,0,23,16519.90424416,3.27031329,False,251
101,8,2,kjkkdjzhecihenkz,33,2021-11-29T14:07:01.502Z,gomot_a.0002.eq.wav,0,24,19092.74669051,-2.46557002,False,251
101,8,2,kjkkdjzhecihenkz,33,2021-11-29T14:07:01.502Z,gomot_a.0002.eq.wav,0,25,22050.00000000,-0.12848688,False,251
101,8,2,kjkkdjzhecihenkz,33,2021-11-29T14:07:01.502Z,gomot_a.0053.eq.wav,1,0,0.00000000,0.12307916,True,251
101,8,2,kjkkdjzhecihenkz,33,2021-11-29T14:07:01.502Z,gomot_a.0053.eq.wav,1,1,104.58767290,1.37507455,True,251
101,8,2,kjkkdjzhecihenkz,33,2021-11-29T14:07:01.502Z,gomot_a.0053.eq.wav,1,2,224.80189054,-1.19365115,True,251
101,8,2,kjkkdjzhecihenkz,33,2021-11-29T14:07:01.502Z,gomot_a.0053.eq.wav,1,3,362.97743001,-2.95773385,True,251
101,8,2,kjkkdjzhecihenkz,33,2021-11-29T14:07:01.502Z,gomot_a.0053.eq.wav,1,4,521.79790965,0.57980723,True,251
101,8,2,kjkkdjzhecihenkz,33,2021-11-29T14:07:01.502Z,gomot_a.0053.eq.wav,1,5,704.34790983,0.73562713,True,251
101,8,2,kjkkdjzhecihenkz,33,2021-11-29T14:07:01.502Z,gomot_a.0053.eq.wav,1,6,914.17288101,4.80865930,True,251
101,8,2,kjkkdjzhecihenkz,33,2021-11-29T14:07:01.502Z,gomot_a.0053.eq.wav,1,7,1155.34800284,0.65608605,True,251
101,8,2,kjkkdjzhecihenkz,33,2021-11-29T14:07:01.502Z,gomot_a.0053.eq.wav,1,8,1432.55733147,0.87813129,True,251
101,8,2,kjkkdjzhecihenkz,33,2021-11-29T14:07:01.502Z,gomot_a.0053.eq.wav,1,9,1751.18477235,1.37011115,True,251
101,8,2,kjkkdjzhecihenkz,33,2021-11-29T14:07:01.502Z,gomot_a.0053.eq.wav,1,10,2117.41864548,-4.53542770,True,251
101,8,2,kjkkdjzhecihenkz,33,2021-11-29T14:07:01.502Z,gomot_a.0053.eq.wav,1,11,2538.37187364,-2.28641494,True,251
101,8,2,kjkkdjzhecihenkz,33,2021-11-29T14:07:01.502Z,gomot_a.0053.eq.wav,1,12,3022.22012828,-1.07485276,True,251
101,8,2,kjkkdjzhecihenkz,33,2021-11-29T14:07:01.502Z,gomot_a.0053.eq.wav,1,13,3578.36061576,2.97639897,True,251
101,8,2,kjkkdjzhecihenkz,33,2021-11-29T14:07:01.502Z,gomot_a.0053.eq.wav,1,14,4217.59458808,-3.73733450,True,251
101,8,2,kjkkdjzhecihenkz,33,2021-11-29T14:07:01.502Z,gomot_a.0053.eq.wav,1,15,4952.33712269,-2.29792541,True,251
101,8,2,kjkkdjzhecihenkz,33,2021-11-29T14:07:01.502Z,gomot_a.0053.eq.wav,1,16,5796.85824570,-0.21371414,True,251
101,8,2,kjkkdjzhecihenkz,33,2021-11-29T14:07:01.502Z,gomot_a.0053.eq.wav,1,17,6767.56008152,-4.40810615,True,251
101,8,2,kjkkdjzhecihenkz,33,2021-11-29T14:07:01.502Z,gomot_a.0053.eq.wav,1,18,7883.29541175,-0.54465958,True,251
101,8,2,kjkkdjzhecihenkz,33,2021-11-29T14:07:01.502Z,gomot_a.0053.eq.wav,1,19,9165.73383021,3.79151498,True,251
101,8,2,kjkkdjzhecihenkz,33,2021-11-29T14:07:01.502Z,gomot_a.0053.eq.wav,1,20,10639.78260555,-2.71123971,True,251
101,8,2,kjkkdjzhecihenkz,33,2021-11-29T14:07:01.502Z,gomot_a.0053.eq.wav,1,21,12334.07042541,-3.94431805,True,251
101,8,2,kjkkdjzhecihenkz,33,2021-11-29T14:07:01.502Z,gomot_a.0053.eq.wav,1,22,14281.50341712,-0.30783007,True,251
101,8,2,kjkkdjzhecihenkz,33,2021-11-29T14:07:01.502Z,gomot_a.0053.eq.wav,1,23,16519.90424416,-4.78941002,True,251
101,8,2,kjkkdjzhecihenkz,33,2021-11-29T14:07:01.502Z,gomot_a.0053.eq.wav,1,24,19092.74669051,-2.13294037,True,251
101,8,2,kjkkdjzhecihenkz,33,2021-11-29T14:07:01.502Z,gomot_a.0053.eq.wav,1,25,22050.00000000,-0.21296746,True,251
101,9,3,kjkkdjzhecihenkz,33,2021-11-29T14:07:01.502Z,gomot_a.0081.eq.wav,0,0,0.00000000,-0.99458023,True,280
101,9,3,kjkkdjzhecihenkz,33,2021-11-29T14:07:01.502Z,gomot_a.0081.eq.wav,0,1,104.58767290,0.75324475,True,280
101,9,3,kjkkdjzhecihenkz,33,2021-11-29T14:07:01.502Z,gomot_a.0081.eq.wav,0,2,224.80189054,2.88072771,True,280
101,9,3,kjkkdjzhecihenkz,33,2021-11-29T14:07:01.502Z,gomot_a.0081.eq.wav,0,3,362.97743001,0.46570032,True,280
101,9,3,kjkkdjzhecihenkz,33,2021-11-29T14:07:01.502Z,gomot_a.0081.eq.wav,0,4,521.79790965,-3.36700207,True,280
101,9,3,kjkkdjzhecihenkz,33,2021-11-29T14:07:01.502Z,gomot_a.0081.eq.wav,0,5,704.34790983,2.38748672,True,280
101,9,3,kjkkdjzhecihenkz,33,2021-11-29T14:07:01.502Z,gomot_a.0081.eq.wav,0,6,914.17288101,2.28565256,True,280
101,9,3,kjkkdjzhecihenkz,33,2021-11-29T14:07:01.502Z,gomot_a.0081.eq.wav,0,7,1155.34800284,4.78773113,True,280
101,9,3,kjkkdjzhecihenkz,33,2021-11-29T14:07:01.502Z,gomot_a.0081.eq.wav,0,8,1432.55733147,1.34258771,True,280
101,9,3,kjkkdjzhecihenkz,33,2021-11-29T14:07:01.502Z,gomot_a.0081.eq.wav,0,9,1751.18477235,2.64151180,True,280
101,9,3,kjkkdjzhecihenkz,33,2021-11-29T14:07:01.502Z,gomot_a.0081.eq.wav,0,10,2117.41864548,1.83841048,True,280
101,9,3,kjkkdjzhecihenkz,33,2021-11-29T14:07:01.502Z,gomot_a.0081.eq.wav,0,11,2538.37187364,-4.23271001,True,280
101,9,3,kjkkdjzhecihenkz,33,2021-11-29T14:07:01.502Z,gomot_a.0081.eq.wav,0,12,3022.22012828,2.08909233,True,280
101,9,3,kjkkdjzhecihenkz,33,2021-11-29T14:07:01.502Z,gomot_a.0081.eq.wav,0,13,3578.36061576,-1.48775199,True,280
101,9,3,kjkkdjzhecihenkz,33,2021-11-29T14:07:01.502Z,gomot_a.0081.eq.wav,0,14,4217.59458808,-2.29500114,True,280
101,9,3,kjkkdjzhecihenkz,33,2021-11-29T14:07:01.502Z,gomot_a.0081.eq.wav,0,15,4952.33712269,-0.95622052,True,280
101,9,3,kjkkdjzhecihenkz,33,2021-11-29T14:07:01.502Z,gomot_a.0081.eq.wav,0,16,5796.85824570,1.33719563,True,280
101,9,3,kjkkdjzhecihenkz,33,2021-11-29T14:07:01.502Z,gomot_a.0081.eq.wav,0,17,6767.56008152,-2.95177878,True,280
101,9,3,kjkkdjzhecihenkz,33,2021-11-29T14:07:01.502Z,gomot_a.0081.eq.wav,0,18,7883.29541175,3.82320183,True,280
101,9,3,kjkkdjzhecihenkz,33,2021-11-29T14:07:01.502Z,gomot_a.0081.eq.wav,0,19,9165.73383021,1.54672690,True,280
101,9,3,kjkkdjzhecihenkz,33,2021-11-29T14:07:01.502Z,gomot_a.0081.eq.wav,0,20,10639.78260555,1.05770973,True,280
101,9,3,kjkkdjzhecihenkz,33,2021-11-29T14:07:01.502Z,gomot_a.0081.eq.wav,0,21,12334.07042541,0.22488734,True,280
101,9,3,kjkkdjzhecihenkz,33,2021-11-29T14:07:01.502Z,gomot_a.0081.eq.wav,0,22,14281.50341712,-0.46841050,True,280
101,9,3,kjkkdjzhecihenkz,33,2021-11-29T14:07:01.502Z,gomot_a.0081.eq.wav,0,23,16519.90424416,4.81206461,True,280
101,9,3,kjkkdjzhecihenkz,33,2021-11-29T14:07:01.502Z,gomot_a.0081.eq.wav,0,24,19092.74669051,-2.70528365,True,280
101,9,3,kjkkdjzhecihenkz,33,2021-11-29T14:07:01.502Z,gomot_a.0081.eq.wav,0,25,22050.00000000,-4.96437929,True,280
101,9,3,kjkkdjzhecihenkz,33,2021-11-29T14:07:01.502Z,gomot_a.0092.eq.wav,1,0,0.00000000,-3.46511900,False,280
101,9,3,kjkkdjzhecihenkz,33,2021-11-29T14:07:01.502Z,gomot_a.0092.eq.wav,1,1,104.58767290,-0.65551187,False,280
101,9,3,kjkkdjzhecihenkz,33,2021-11-29T14:07:01.502Z,gomot_a.0092.eq.wav,1,2,224.80189054,-1.59323536,False,280
101,9,3,kjkkdjzhecihenkz,33,2021-11-29T14:07:01.502Z,gomot_a.0092.eq.wav,1,3,362.97743001,0.31266227,False,280
101,9,3,kjkkdjzhecihenkz,33,2021-11-29T14:07:01.502Z,gomot_a.0092.eq.wav,1,4,521.79790965,-4.59214135,False,280
101,9,3,kjkkdjzhecihenkz,33,2021-11-29T14:07:01.502Z,gomot_a.0092.eq.wav,1,5,704.34790983,-4.21893543,False,280
101,9,3,kjkkdjzhecihenkz,33,2021-11-29T14:07:01.502Z,gomot_a.0092.eq.wav,1,6,914.17288101,-1.49680782,False,280
101,9,3,kjkkdjzhecihenkz,33,2021-11-29T14:07:01.502Z,gomot_a.0092.eq.wav,1,7,1155.34800284,3.80687029,False,280
101,9,3,kjkkdjzhecihenkz,33,2021-11-29T14:07:01.502Z,gomot_a.0092.eq.wav,1,8,1432.55733147,4.03572178,False,280
101,9,3,kjkkdjzhecihenkz,33,2021-11-29T14:07:01.502Z,gomot_a.0092.eq.wav,1,9,1751.18477235,2.95926024,False,280
101,9,3,kjkkdjzhecihenkz,33,2021-11-29T14:07:01.502Z,gomot_a.0092.eq.wav,1,10,2117.41864548,1.40909356,False,280
101,9,3,kjkkdjzhecihenkz,33,2021-11-29T14:07:01.502Z,gomot_a.0092.eq.wav,1,11,2538.37187364,-2.85003275,False,280
101,9,3,kjkkdjzhecihenkz,33,2021-11-29T14:07:01.502Z,gomot_a.0092.eq.wav,1,12,3022.22012828,-2.63355568,False,280
101,9,3,kjkkdjzhecihenkz,33,2021-11-29T14:07:01.502Z,gomot_a.0092.eq.wav,1,13,3578.36061576,4.53525792,False,280
101,9,3,kjkkdjzhecihenkz,33,2021-11-29T14:07:01.502Z,gomot_a.0092.eq.wav,1,14,4217.59458808,3.45242956,False,280
101,9,3,kjkkdjzhecihenkz,33,2021-11-29T14:07:01.502Z,gomot_a.0092.eq.wav,1,15,4952.33712269,-4.98872579,False,280
101,9,3,kjkkdjzhecihenkz,33,2021-11-29T14:07:01.502Z,gomot_a.0092.eq.wav,1,16,5796.85824570,0.75340986,False,280
101,9,3,kjkkdjzhecihenkz,33,2021-11-29T14:07:01.502Z,gomot_a.0092.eq.wav,1,17,6767.56008152,-1.38598264,False,280
101,9,3,kjkkdjzhecihenkz,33,2021-11-29T14:07:01.502Z,gomot_a.0092.eq.wav,1,18,7883.29541175,-4.90072441,False,280
101,9,3,kjkkdjzhecihenkz,33,2021-11-29T14:07:01.502Z,gomot_a.0092.eq.wav,1,19,9165.73383021,2.05578891,False,280
101,9,3,kjkkdjzhecihenkz,33,2021-11-29T14:07:01.502Z,gomot_a.0092.eq.wav,1,20,10639.78260555,2.87340274,False,280
101,9,3,kjkkdjzhecihenkz,33,2021-11-29T14:07:01.502Z,gomot_a.0092.eq.wav,1,21,12334.07042541,3.59126809,False,280
101,9,3,kjkkdjzhecihenkz,33,2021-11-29T14:07:01.502Z,gomot_a.0092.eq.wav,1,22,14281.50341712,-3.27322051,False,280
101,9,3,kjkkdjzhecihenkz,33,2021-11-29T14:07:01.502Z,gomot_a.0092.eq.wav,1,23,16519.90424416,-1.61159627,False,280
101,9,3,kjkkdjzhecihenkz,33,2021-11-29T14:07:01.502Z,gomot_a.0092.eq.wav,1,24,19092.74669051,-1.18355632,False,280
101,9,3,kjkkdjzhecihenkz,33,2021-11-29T14:07:01.502Z,gomot_a.0092.eq.wav,1,25,22050.00000000,2.23624676,False,280
101,10,3,kjkkdjzhecihenkz,33,2021-11-29T14:07:01.502Z,gomot_a.0080.eq.wav,0,0,0.00000000,-1.19254113,True,235
101,10,3,kjkkdjzhecihenkz,33,2021-11-29T14:07:01.502Z,gomot_a.0080.eq.wav,0,1,104.58767290,0.47525730,True,235
101,10,3,kjkkdjzhecihenkz,33,2021-11-29T14:07:01.502Z,gomot_a.0080.eq.wav,0,2,224.80189054,-4.36139708,True,235
101,10,3,kjkkdjzhecihenkz,33,2021-11-29T14:07:01.502Z,gomot_a.0080.eq.wav,0,3,362.97743001,-1.95146895,True,235
101,10,3,kjkkdjzhecihenkz,33,2021-11-29T14:07:01.502Z,gomot_a.0080.eq.wav,0,4,521.79790965,-1.45552714,True,235
101,10,3,kjkkdjzhecihenkz,33,2021-11-29T14:07:01.502Z,gomot_a.0080.eq.wav,0,5,704.34790983,0.68423055,True,235
101,10,3,kjkkdjzhecihenkz,33,2021-11-29T14:07:01.502Z,gomot_a.0080.eq.wav,0,6,914.17288101,-3.32514036,True,235
101,10,3,kjkkdjzhecihenkz,33,2021-11-29T14:07:01.502Z,gomot_a.0080.eq.wav,0,7,1155.34800284,-4.17373867,True,235
101,10,3,kjkkdjzhecihenkz,33,2021-11-29T14:07:01.502Z,gomot_a.0080.eq.wav,0,8,1432.55733147,-2.89095256,True,235
101,10,3,kjkkdjzhecihenkz,33,2021-11-29T14:07:01.502Z,gomot_a.0080.eq.wav,0,9,1751.18477235,-2.12069436,True,235
101,10,3,kjkkdjzhecihenkz,33,2021-11-29T14:07:01.502Z,gomot_a.0080.eq.wav,0,10,2117.41864548,2.90180225,True,235
101,10,3,kjkkdjzhecihenkz,33,2021-11-29T14:07:01.502Z,gomot_a.0080.eq.wav,0,11,2538.37187364,-4.23018954,True,235
101,10,3,kjkkdjzhecihenkz,33,2021-11-29T14:07:01.502Z,gomot_a.0080.eq.wav,0,12,3022.22012828,3.70199671,True,235
101,10,3,kjkkdjzhecihenkz,33,2021-11-29T14:07:01.502Z,gomot_a.0080.eq.wav,0,13,3578.36061576,0.09942411,True,235
101,10,3,kjkkdjzhecihenkz,33,2021-11-29T14:07:01.502Z,gomot_a.0080.eq.wav,0,14,4217.59458808,0.86653235,True,235
101,10,3,kjkkdjzhecihenkz,33,2021-11-29T14:07:01.502Z,gomot_a.0080.eq.wav,0,15,4952.33712269,1.49019233,True,235
101,10,3,kjkkdjzhecihenkz,33,2021-11-29T14:07:01.502Z,gomot_a.0080.eq.wav,0,16,5796.85824570,-1.96910435,True,235
101,10,3,kjkkdjzhecihenkz,33,2021-11-29T14:07:01.502Z,gomot_a.0080.eq.wav,0,17,6767.56008152,-4.62673343,True,235
101,10,3,kjkkdjzhecihenkz,33,2021-11-29T14:07:01.502Z,gomot_a.0080.eq.wav,0,18,7883.29541175,-2.09691212,True,235
101,10,3,kjkkdjzhecihenkz,33,2021-11-29T14:07:01.502Z,gomot_a.0080.eq.wav,0,19,9165.73383021,1.42691502,True,235
101,10,3,kjkkdjzhecihenkz,33,2021-11-29T14:07:01.502Z,gomot_a.0080.eq.wav,0,20,10639.78260555,-1.26833221,True,235
101,10,3,kjkkdjzhecihenkz,33,2021-11-29T14:07:01.502Z,gomot_a.0080.eq.wav,0,21,12334.07042541,-0.29488456,True,235
101,10,3,kjkkdjzhecihenkz,33,2021-11-29T14:07:01.502Z,gomot_a.0080.eq.wav,0,22,14281.50341712,-2.07721545,True,235
101,10,3,kjkkdjzhecihenkz,33,2021-11-29T14:07:01.502Z,gomot_a.0080.eq.wav,0,23,16519.90424416,-1.12806290,True,235
101,10,3,kjkkdjzhecihenkz,33,2021-11-29T14:07:01.502Z,gomot_a.0080.eq.wav,0,24,19092.74669051,2.35728151,True,235
101,10,3,kjkkdjzhecihenkz,33,2021-11-29T14:07:01.502Z,gomot_a.0080.eq.wav,0,25,22050.00000000,-4.98896741,True,235
101,10,3,kjkkdjzhecihenkz,33,2021-11-29T14:07:01.502Z,gomot_a.0095.eq.wav,1,0,0.00000000,0.48678094,False,235
101,10,3,kjkkdjzhecihenkz,33,2021-11-29T14:07:01.502Z,gomot_a.0095.eq.wav,1,1,104.58767290,-2.68545174,False,235
101,10,3,kjkkdjzhecihenkz,33,2021-11-29T14:07:01.502Z,gomot_a.0095.eq.wav,1,2,224.80189054,-1.14368737,False,235
101,10,3,kjkkdjzhecihenkz,33,2021-11-29T14:07:01.502Z,gomot_a.0095.eq.wav,1,3,362.97743001,1.16094522,False,235
101,10,3,kjkkdjzhecihenkz,33,2021-11-29T14:07:01.502Z,gomot_a.0095.eq.wav,1,4,521.79790965,-2.03166928,False,235
101,10,3,kjkkdjzhecihenkz,33,2021-11-29T14:07:01.502Z,gomot_a.0095.eq.wav,1,5,704.34790983,1.07920760,False,235
101,10,3,kjkkdjzhecihenkz,33,2021-11-29T14:07:01.502Z,gomot_a.0095.eq.wav,1,6,914.17288101,0.50446993,False,235
101,10,3,kjkkdjzhecihenkz,33,2021-11-29T14:07:01.502Z,gomot_a.0095.eq.wav,1,7,1155.34800284,3.47848651,False,235
101,10,3,kjkkdjzhecihenkz,33,2021-11-29T14:07:01.502Z,gomot_a.0095.eq.wav,1,8,1432.55733147,4.22414122,False,235
101,10,3,kjkkdjzhecihenkz,33,2021-11-29T14:07:01.502Z,gomot_a.0095.eq.wav,1,9,1751.18477235,-3.81763640,False,235
101,10,3,kjkkdjzhecihenkz,33,2021-11-29T14:07:01.502Z,gomot_a.0095.eq.wav,1,10,2117.41864548,1.51501095,False,235
101,10,3,kjkkdjzhecihenkz,33,2021-11-29T14:07:01.502Z,gomot_a.0095.eq.wav,1,11,2538.37187364,-0.00887359,False,235
101,10,3,kjkkdjzhecihenkz,33,2021-11-29T14:07:01.502Z,gomot_a.0095.eq.wav,1,12,3022.22012828,-0.05123321,False,235
101,10,3,kjkkdjzhecihenkz,33,2021-11-29T14:07:01.502Z,gomot_a.0095.eq.wav,1,13,3578.36061576,-0.37471801,False,235
101,10,3,kjkkdjzhecihenkz,33,2021-11-29T14:07:01.502Z,gomot_a.0095.eq.wav,1,14,4217.59458808,-4.41485406,False,235
101,10,3,kjkkdjzhecihenkz,33,2021-11-29T14:07:01.502Z,gomot_a.0095.eq.wav,1,15,4952.33712269,-3.98290750,False,235
101,10,3,kjkkdjzhecihenkz,33,2021-11-29T14:07:01.502Z,gomot_a.0095.eq.wav,1,16,5796.85824570,-3.72409031,False,235
101,10,3,kjkkdjzhecihenkz,33,2021-11-29T14:07:01.502Z,gomot_a.0095.eq.wav,1,17,6767.56008152,0.24038496,False,235
101,10,3,kjkkdjzhecihenkz,33,2021-11-29T14:07:01.502Z,gomot_a.0095.eq.wav,1,18,7883.29541175,4.85211996,False,235
101,10,3,kjkkdjzhecihenkz,33,2021-11-29T14:07:01.502Z,gomot_a.0095.eq.wav,1,19,9165.73383021,3.27725704,False,235
101,10,3,kjkkdjzhecihenkz,33,2021-11-29T14:07:01.502Z,gomot_a.0095.eq.wav,1,20,10639.78260555,-0.33966560,False,235
101,10,3,kjkkdjzhecihenkz,33,2021-11-29T14:07:01.502Z,gomot_a.0095.eq.wav,1,21,12334.07042541,0.60825046,False,235
101,10,3,kjkkdjzhecihenkz,33,2021-11-29T14:07:01.502Z,gomot_a.0095.eq.wav,1,22,14281.50341712,-3.57493443,False,235
101,10,3,kjkkdjzhecihenkz,33,2021-11-29T14:07:01.502Z,gomot_a.0095.eq.wav,1,23,16519.90424416,0.40183792,False,235
101,10,3,kjkkdjzhecihenkz,33,2021-11-29T14:07:01.502Z,gomot_a.0095.eq.wav,1,24,19092.74669051,4.02359063,False,235
101,10,3,kjkkdjzhecihenkz,33,2021-11-29T14:07:01.502Z,gomot_a.0095.eq.wav,1,25,22050.00000000,0.79130830,False,235
101,11,3,kjkkdjzhecihenkz,33,2021-11-29T14:07:01.502Z,gomot_a.0086.eq.wav,0,0,0.00000000,0.58333979,False,106
101,11,3,kjkkdjzhecihenkz,33,2021-11-29T14:07:01.502Z,gomot_a.0086.eq.wav,0,1,104.58767290,-1.52320067,False,106
101,11,3,kjkkdjzhecihenkz,33,2021-11-29T14:07:01.502Z,gomot_a.0086.eq.wav,0,2,224.80189054,-0.32638084,False,106
101,11,3,kjkkdjzhecihenkz,33,2021-11-29T14:07:01.502Z,gomot_a.0086.eq.wav,0,3,362.97743001,3.30016541,False,106
101,11,3,kjkkdjzhecihenkz,33,2021-11-29T14:07:01.502Z,gomot_a.0086.eq.wav,0,4,521.79790965,-2.97613952,False,106
101,11,3,kjkkdjzhecihenkz,33,2021-11-29T14:07:01.502Z,gomot_a.0086.eq.wav,0,5,704.34790983,-2.21261089,False,106
101,11,3,kjkkdjzhecihenkz,33,2021-11-29T14:07:01.502Z,gomot_a.0086.eq.wav,0,6,914.17288101,-3.27074200,False,106
101,11,3,kjkkdjzhecihenkz,33,2021-11-29T14:07:01.502Z,gomot_a.0086.eq.wav,0,7,1155.34800284,-3.50496577,False,106
101,11,3,kjkkdjzhecihenkz,33,2021-11-29T14:07:01.502Z,gomot_a.0086.eq.wav,0,8,1432.55733147,-2.39432099,False,106
101,11,3,kjkkdjzhecihenkz,33,2021-11-29T14:07:01.502Z,gomot_a.0086.eq.wav,0,9,1751.18477235,3.09592098,False,106
101,11,3,kjkkdjzhecihenkz,33,2021-11-29T14:07:01.502Z,gomot_a.0086.eq.wav,0,10,2117.41864548,-1.57286781,False,106
101,11,3,kjkkdjzhecihenkz,33,2021-11-29T14:07:01.502Z,gomot_a.0086.eq.wav,0,11,2538.37187364,4.22608362,False,106
101,11,3,kjkkdjzhecihenkz,33,2021-11-29T14:07:01.502Z,gomot_a.0086.eq.wav,0,12,3022.22012828,3.66312044,False,106
101,11,3,kjkkdjzhecihenkz,33,2021-11-29T14:07:01.502Z,gomot_a.0086.eq.wav,0,13,3578.36061576,-3.02933103,False,106
101,11,3,kjkkdjzhecihenkz,33,2021-11-29T14:07:01.502Z,gomot_a.0086.eq.wav,0,14,4217.59458808,0.24629614,False,106
101,11,3,kjkkdjzhecihenkz,33,2021-11-29T14:07:01.502Z,gomot_a.0086.eq.wav,0,15,4952.33712269,1.25958760,False,106
101,11,3,kjkkdjzhecihenkz,33,2021-11-29T14:07:01.502Z,gomot_a.0086.eq.wav,0,16,5796.85824570,4.59909304,False,106
101,11,3,kjkkdjzhecihenkz,33,2021-11-29T14:07:01.502Z,gomot_a.0086.eq.wav,0,17,6767.56008152,4.20038222,False,106
101,11,3,kjkkdjzhecihenkz,33,2021-11-29T14:07:01.502Z,gomot_a.0086.eq.wav,0,18,7883.29541175,2.22246272,False,106
101,11,3,kjkkdjzhecihenkz,33,2021-11-29T14:07:01.502Z,gomot_a.0086.eq.wav,0,19,9165.73383021,4.19972776,False,106
101,11,3,kjkkdjzhecihenkz,33,2021-11-29T14:07:01.502Z,gomot_a.0086.eq.wav,0,20,10639.78260555,2.54320294,False,106
101,11,3,kjkkdjzhecihenkz,33,2021-11-29T14:07:01.502Z,gomot_a.0086.eq.wav,0,21,12334.07042541,3.13562722,False,106
101,11,3,kjkkdjzhecihenkz,33,2021-11-29T14:07:01.502Z,gomot_a.0086.eq.wav,0,22,14281.50341712,4.04567475,False,106
101,11,3,kjkkdjzhecihenkz,33,2021-11-29T14:07:01.502Z,gomot_a.0086.eq.wav,0,23,16519.90424416,1.40760718,False,106
101,11,3,kjkkdjzhecihenkz,33,2021-11-29T14:07:01.502Z,gomot_a.0086.eq.wav,0,24,19092.74669051,-1.90462628,False,106
101,11,3,kjkkdjzhecihenkz,33,2021-11-29T14:07:01.502Z,gomot_a.0086.eq.wav,0,25,22050.00000000,-3.36732780,False,106
101,11,3,kjkkdjzhecihenkz,33,2021-11-29T14:07:01.502Z,gomot_a.0038.eq.wav,1,0,0.00000000,-0.32275309,True,106
101,11,3,kjkkdjzhecihenkz,33,2021-11-29T14:07:01.502Z,gomot_a.0038.eq.wav,1,1,104.58767290,1.97877514,True,106
101,11,3,kjkkdjzhecihenkz,33,2021-11-29T14:07:01.502Z,gomot_a.0038.eq.wav,1,2,224.80189054,-1.45982011,True,106
101,11,3,kjkkdjzhecihenkz,33,2021-11-29T14:07:01.502Z,gomot_a.0038.eq.wav,1,3,362.97743001,4.53930576,True,106
101,11,3,kjkkdjzhecihenkz,33,2021-11-29T14:07:01.502Z,gomot_a.0038.eq.wav,1,4,521.79790965,-1.30475021,True,106
101,11,3,kjkkdjzhecihenkz,33,2021-11-29T14:07:01.502Z,gomot_a.0038.eq.wav,1,5,704.34790983,-3.92269798,True,106
101,11,3,kjkkdjzhecihenkz,33,2021-11-29T14:07:01.502Z,gomot_a.0038.eq.wav,1,6,914.17288101,1.21636372,True,106
101,11,3,kjkkdjzhecihenkz,33,2021-11-29T14:07:01.502Z,gomot_a.0038.eq.wav,1,7,1155.34800284,-4.46967687,True,106
101,11,3,kjkkdjzhecihenkz,33,2021-11-29T14:07:01.502Z,gomot_a.0038.eq.wav,1,8,1432.55733147,0.72119050,True,106
101,11,3,kjkkdjzhecihenkz,33,2021-11-29T14:07:01.502Z,gomot_a.0038.eq.wav,1,9,1751.18477235,-0.09070231,True,106
101,11,3,kjkkdjzhecihenkz,33,2021-11-29T14:07:01.502Z,gomot_a.0038.eq.wav,1,10,2117.41864548,1.53505213,True,106
101,11,3,kjkkdjzhecihenkz,33,2021-11-29T14:07:01.502Z,gomot_a.0038.eq.wav,1,11,2538.37187364,0.01983639,True,106
101,11,3,kjkkdjzhecihenkz,33,2021-11-29T14:07:01.502Z,gomot_a.0038.eq.wav,1,12,3022.22012828,0.96166179,True,106
101,11,3,kjkkdjzhecihenkz,33,2021-11-29T14:07:01.502Z,gomot_a.0038.eq.wav,1,13,3578.36061576,-3.11504368,True,106
101,11,3,kjkkdjzhecihenkz,33,2021-11-29T14:07:01.502Z,gomot_a.0038.eq.wav,1,14,4217.59458808,1.28503722,True,106
101,11,3,kjkkdjzhecihenkz,33,2021-11-29T14:07:01.502Z,gomot_a.0038.eq.wav,1,15,4952.33712269,4.27161365,True,106
101,11,3,kjkkdjzhecihenkz,33,2021-11-29T14:07:01.502Z,gomot_a.0038.eq.wav,1,16,5796.85824570,2.37298289,True,106
101,11,3,kjkkdjzhecihenkz,33,2021-11-29T14:07:01.502Z,gomot_a.0038.eq.wav,1,17,6767.56008152,-0.28548358,True,106
101,11,3,kjkkdjzhecihenkz,33,2021-11-29T14:07:01.502Z,gomot_a.0038.eq.wav,1,18,7883.29541175,0.76154530,True,106
101,11,3,kjkkdjzhecihenkz,33,2021-11-29T14:07:01.502Z,gomot_a.0038.eq.wav,1,19,9165.73383021,0.98828776,True,106
101,11,3,kjkkdjzhecihenkz,33,2021-11-29T14:07:01.502Z,gomot_a.0038.eq.wav,1,20,10639.78260555,-0.49186403,True,106
101,11,3,kjkkdjzhecihenkz,33,2021-11-29T14:07:01.502Z,gomot_a.0038.eq.wav,1,21,12334.07042541,3.85408250,True,106
101,11,3,kjkkdjzhecihenkz,33,2021-11-29T14:07:01.502Z,gomot_a.0038.eq.wav,1,22,14281.50341712,-2.78019199,True,106
101,11,3,kjkkdjzhecihenkz,33,2021-11-29T14:07:01.502Z,gomot_a.0038.eq.wav,1,23,16519.90424416,-0.57161870,True,106
101,11,3,kjkkdjzhecihenkz,33,2021-11-29T14:07:01.502Z,gomot_a.0038.eq.wav,1,24,19092.74669051,-3.47463800,True,106
101,11,3,kjkkdjzhecihenkz,33,2021-11-29T14:07:01.502Z,gomot_a.0038.eq.wav,1,25,22050.00000000,2.24984897,True,106
101,12,4,kjkkdjzhecihenkz,33,2021-11-29T14:07:01.502Z,gomot_a.0059.eq.wav,0,0,0.00000000,2.68120984,True,235
101,12,4,kjkkdjzhecihenkz,33,2021-11-29T14:07:01.502Z,gomot_a.0059.eq.wav,0,1,104.58767290,-4.71220654,True,235
101,12,4,kjkkdjzhecihenkz,33,2021-11-29T14:07:01.502Z,gomot_a.0059.eq.wav,0,2,224.80189054,1.56485159,True,235
101,12,4,kjkkdjzhecihenkz,33,2021-11-29T14:07:01.502Z,gomot_a.0059.eq.wav,0,3,362.97743001,0.26978877,True,235
101,12,4,kjkkdjzhecihenkz,33,2021-11-29T14:07:01.502Z,gomot_a.0059.eq.wav,0,4,521.79790965,3.04103951,True,235
101,12,4,kjkkdjzhecihenkz,33,2021-11-29T14:07:01.502Z,gomot_a.0059.eq.wav,0,5,704.34790983,-1.55198887,True,235
101,12,4,kjkkdjzhecihenkz,33,2021-11-29T14:07:01.502Z,gomot_a.0059.eq.wav,0,6,914.17288101,0.06699120,True,235
101,12,4,kjkkdjzhecihenkz,33,2021-11-29T14:07:01.502Z,gomot_a.0059.eq.wav,0,7,1155.34800284,0.13356660,True,235
101,12,4,kjkkdjzhecihenkz,33,2021-11-29T14:07:01.502Z,gomot_a.0059.eq.wav,0,8,1432.55733147,-1.60445985,True,235
101,12,4,kjkkdjzhecihenkz,33,2021-11-29T14:07:01.502Z,gomot_a.0059.eq.wav,0,9,1751.18477235,-0.70250139,True,235
101,12,4,kjkkdjzhecihenkz,33,2021-11-29T14:07:01.502Z,gomot_a.0059.eq.wav,0,10,2117.41864548,4.33497685,True,235
101,12,4,kjkkdjzhecihenkz,33,2021-11-29T14:07:01.502Z,gomot_a.0059.eq.wav,0,11,2538.37187364,2.14210771,True,235
101,12,4,kjkkdjzhecihenkz,33,2021-11-29T14:07:01.502Z,gomot_a.0059.eq.wav,0,12,3022.22012828,-3.52215697,True,235
101,12,4,kjkkdjzhecihenkz,33,2021-11-29T14:07:01.502Z,gomot_a.0059.eq.wav,0,13,3578.36061576,0.07507471,True,235
101,12,4,kjkkdjzhecihenkz,33,2021-11-29T14:07:01.502Z,gomot_a.0059.eq.wav,0,14,4217.59458808,2.66357088,True,235
101,12,4,kjkkdjzhecihenkz,33,2021-11-29T14:07:01.502Z,gomot_a.0059.eq.wav,0,15,4952.33712269,2.40621889,True,235
101,12,4,kjkkdjzhecihenkz,33,2021-11-29T14:07:01.502Z,gomot_a.0059.eq.wav,0,16,5796.85824570,0.91691605,True,235
101,12,4,kjkkdjzhecihenkz,33,2021-11-29T14:07:01.502Z,gomot_a.0059.eq.wav,0,17,6767.56008152,-4.49380907,True,235
101,12,4,kjkkdjzhecihenkz,33,2021-11-29T14:07:01.502Z,gomot_a.0059.eq.wav,0,18,7883.29541175,-0.43293334,True,235
101,12,4,kjkkdjzhecihenkz,33,2021-11-29T14:07:01.502Z,gomot_a.0059.eq.wav,0,19,9165.73383021,-3.06329289,True,235
101,12,4,kjkkdjzhecihenkz,33,2021-11-29T14:07:01.502Z,gomot_a.0059.eq.wav,0,20,10639.78260555,-3.82909680,True,235
101,12,4,kjkkdjzhecihenkz,33,2021-11-29T14:07:01.502Z,gomot_a.0059.eq.wav,0,21,12334.07042541,-4.82205514,True,235
101,12,4,kjkkdjzhecihenkz,33,2021-11-29T14:07:01.502Z,gomot_a.0059.eq.wav,0,22,14281.50341712,0.04486841,True,235
101,12,4,kjkkdjzhecihenkz,33,2021-11-29T14:07:01.502Z,gomot_a.0059.eq.wav,0,23,16519.90424416,1.20798841,True,235
101,12,4,kjkkdjzhecihenkz,33,2021-11-29T14:07:01.502Z,gomot_a.0059.eq.wav,0,24,19092.74669051,3.39101231,True,235
101,12,4,kjkkdjzhecihenkz,33,2021-11-29T14:07:01.502Z,gomot_a.0059.eq.wav,0,25,22050.00000000,-0.21837354,True,235
101,12,4,kjkkdjzhecihenkz,33,2021-11-29T14:07:01.502Z,gomot_a.0036.eq.wav,1,0,0.00000000,0.59294336,False,235
101,12,4,kjkkdjzhecihenkz,33,2021-11-29T14:07:01.502Z,gomot_a.0036.eq.wav,1,1,104.58767290,0.62564669,False,235
101,12,4,kjkkdjzhecihenkz,33,2021-11-29T14:07:01.502Z,gomot_a.0036.eq.wav,1,2,224.80189054,0.84226281,False,235
101,12,4,kjkkdjzhecihenkz,33,2021-11-29T14:07:01.502Z,gomot_a.0036.eq.wav,1,3,362.97743001,-4.98127268,False,235
101,12,4,kjkkdjzhecihenkz,33,2021-11-29T14:07:01.502Z,gomot_a.0036.eq.wav,1,4,521.79790965,-0.39609217,False,235
101,12,4,kjkkdjzhecihenkz,33,2021-11-29T14:07:01.502Z,gomot_a.0036.eq.wav,1,5,704.34790983,-0.33148496,False,235
101,12,4,kjkkdjzhecihenkz,33,2021-11-29T14:07:01.502Z,gomot_a.0036.eq.wav,1,6,914.17288101,-2.87713108,False,235
101,12,4,kjkkdjzhecihenkz,33,2021-11-29T14:07:01.502Z,gomot_a.0036.eq.wav,1,7,1155.34800284,-3.73647750,False,235
101,12,4,kjkkdjzhecihenkz,33,2021-11-29T14:07:01.502Z,gomot_a.0036.eq.wav,1,8,1432.55733147,-2.22553061,False,235
101,12,4,kjkkdjzhecihenkz,33,2021-11-29T14:07:01.502Z,gomot_a.0036.eq.wav,1,9,1751.18477235,-0.44008406,False,235
101,12,4,kjkkdjzhecihenkz,33,2021-11-29T14:07:01.502Z,gomot_a.0036.eq.wav,1,10,2117.41864548,-0.19745310,False,235
101,12,4,kjkkdjzhecihenkz,33,2021-11-29T14:07:01.502Z,gomot_a.0036.eq.wav,1,11,2538.37187364,-1.27239784,False,235
101,12,4,kjkkdjzhecihenkz,33,2021-11-29T14:07:01.502Z,gomot_a.0036.eq.wav,1,12,3022.22012828,-4.29712327,False,235
101,12,4,kjkkdjzhecihenkz,33,2021-11-29T14:07:01.502Z,gomot_a.0036.eq.wav,1,13,3578.36061576,-3.86743745,False,235
101,12,4,kjkkdjzhecihenkz,33,2021-11-29T14:07:01.502Z,gomot_a.0036.eq.wav,1,14,4217.59458808,3.90771563,False,235
101,12,4,kjkkdjzhecihenkz,33,2021-11-29T14:07:01.502Z,gomot_a.0036.eq.wav,1,15,4952.33712269,-0.06737113,False,235
101,12,4,kjkkdjzhecihenkz,33,2021-11-29T14:07:01.502Z,gomot_a.0036.eq.wav,1,16,5796.85824570,-0.72252667,False,235
101,12,4,kjkkdjzhecihenkz,33,2021-11-29T14:07:01.502Z,gomot_a.0036.eq.wav,1,17,6767.56008152,-2.39395088,False,235
101,12,4,kjkkdjzhecihenkz,33,2021-11-29T14:07:01.502Z,gomot_a.0036.eq.wav,1,18,7883.29541175,2.17373783,False,235
101,12,4,kjkkdjzhecihenkz,33,2021-11-29T14:07:01.502Z,gomot_a.0036.eq.wav,1,19,9165.73383021,-0.43854436,False,235
101,12,4,kjkkdjzhecihenkz,33,2021-11-29T14:07:01.502Z,gomot_a.0036.eq.wav,1,20,10639.78260555,-1.42917646,False,235
101,12,4,kjkkdjzhecihenkz,33,2021-11-29T14:07:01.502Z,gomot_a.0036.eq.wav,1,21,12334.07042541,2.03723983,False,235
101,12,4,kjkkdjzhecihenkz,33,2021-11-29T14:07:01.502Z,gomot_a.0036.eq.wav,1,22,14281.50341712,-0.27376869,False,235
101,12,4,kjkkdjzhecihenkz,33,2021-11-29T14:07:01.502Z,gomot_a.0036.eq.wav,1,23,16519.90424416,-0.13609959,False,235
101,12,4,kjkkdjzhecihenkz,33,2021-11-29T14:07:01.502Z,gomot_a.0036.eq.wav,1,24,19092.74669051,-4.34602323,False,235
101,12,4,kjkkdjzhecihenkz,33,2021-11-29T14:07:01.502Z,gomot_a.0036.eq.wav,1,25,22050.00000000,-1.16116928,False,235
101,13,4,kjkkdjzhecihenkz,33,2021-11-29T14:07:01.502Z,gomot_a.0066.eq.wav,0,0,0.00000000,3.16850798,False,1545
101,13,4,kjkkdjzhecihenkz,33,2021-11-29T14:07:01.502Z,gomot_a.0066.eq.wav,0,1,104.58767290,-3.61169696,False,1545
101,13,4,kjkkdjzhecihenkz,33,2021-11-29T14:07:01.502Z,gomot_a.0066.eq.wav,0,2,224.80189054,-0.97706244,False,1545
101,13,4,kjkkdjzhecihenkz,33,2021-11-29T14:07:01.502Z,gomot_a.0066.eq.wav,0,3,362.97743001,-1.28553144,False,1545
101,13,4,kjkkdjzhecihenkz,33,2021-11-29T14:07:01.502Z,gomot_a.0066.eq.wav,0,4,521.79790965,0.30328041,False,1545
101,13,4,kjkkdjzhecihenkz,33,2021-11-29T14:07:01.502Z,gomot_a.0066.eq.wav,0,5,704.34790983,-1.55901040,False,1545
101,13,4,kjkkdjzhecihenkz,33,2021-11-29T14:07:01.502Z,gomot_a.0066.eq.wav,0,6,914.17288101,4.00630043,False,1545
101,13,4,kjkkdjzhecihenkz,33,2021-11-29T14:07:01.502Z,gomot_a.0066.eq.wav,0,7,1155.34800284,-3.01256833,False,1545
101,13,4,kjkkdjzhecihenkz,33,2021-11-29T14:07:01.502Z,gomot_a.0066.eq.wav,0,8,1432.55733147,3.65867753,False,1545
101,13,4,kjkkdjzhecihenkz,33,2021-11-29T14:07:01.502Z,gomot_a.0066.eq.wav,0,9,1751.18477235,2.54453690,False,1545
101,13,4,kjkkdjzhecihenkz,33,2021-11-29T14:07:01.502Z,gomot_a.0066.eq.wav,0,10,2117.41864548,-1.69848937,False,1545
101,13,4,kjkkdjzhecihenkz,33,2021-11-29T14:07:01.502Z,gomot_a.0066.eq.wav,0,11,2538.37187364,-1.92863323,False,1545
101,13,4,kjkkdjzhecihenkz,33,2021-11-29T14:07:01.502Z,gomot_a.0066.eq.wav,0,12,3022.22012828,0.25665247,False,1545
101,13,4,kjkkdjzhecihenkz,33,2021-11-29T14:07:01.502Z,gomot_a.0066.eq.wav,0,13,3578.36061576,-1.25686621,False,1545
101,13,4,kjkkdjzhecihenkz,33,2021-11-29T14:07:01.502Z,gomot_a.0066.eq.wav,0,14,4217.59458808,3.35160366,False,1545
101,13,4,kjkkdjzhecihenkz,33,2021-11-29T14:07:01.502Z,gomot_a.0066.eq.wav,0,15,4952.33712269,2.08259707,False,1545
101,13,4,kjkkdjzhecihenkz,33,2021-11-29T14:07:01.502Z,gomot_a.0066.eq.wav,0,16,5796.85824570,-2.89743311,False,1545
101,13,4,kjkkdjzhecihenkz,33,2021-11-29T14:07:01.502Z,gomot_a.0066.eq.wav,0,17,6767.56008152,-4.90515082,False,1545
101,13,4,kjkkdjzhecihenkz,33,2021-11-29T14:07:01.502Z,gomot_a.0066.eq.wav,0,18,7883.29541175,3.16072446,False,1545
101,13,4,kjkkdjzhecihenkz,33,2021-11-29T14:07:01.502Z,gomot_a.0066.eq.wav,0,19,9165.73383021,-0.28241308,False,1545
101,13,4,kjkkdjzhecihenkz,33,2021-11-29T14:07:01.502Z,gomot_a.0066.eq.wav,0,20,10639.78260555,2.36594386,False,1545
101,13,4,kjkkdjzhecihenkz,33,2021-11-29T14:07:01.502Z,gomot_a.0066.eq.wav,0,21,12334.07042541,-4.19926312,False,1545
101,13,4,kjkkdjzhecihenkz,33,2021-11-29T14:07:01.502Z,gomot_a.0066.eq.wav,0,22,14281.50341712,-3.70064105,False,1545
101,13,4,kjkkdjzhecihenkz,33,2021-11-29T14:07:01.502Z,gomot_a.0066.eq.wav,0,23,16519.90424416,3.64981698,False,1545
101,13,4,kjkkdjzhecihenkz,33,2021-11-29T14:07:01.502Z,gomot_a.0066.eq.wav,0,24,19092.74669051,0.37409401,False,1545
101,13,4,kjkkdjzhecihenkz,33,2021-11-29T14:07:01.502Z,gomot_a.0066.eq.wav,0,25,22050.00000000,-1.58566908,False,1545
101,13,4,kjkkdjzhecihenkz,33,2021-11-29T14:07:01.502Z,gomot_a.0068.eq.wav,1,0,0.00000000,-2.74498153,True,1545
101,13,4,kjkkdjzhecihenkz,33,2021-11-29T14:07:01.502Z,gomot_a.0068.eq.wav,1,1,104.58767290,-1.19843649,True,1545
101,13,4,kjkkdjzhecihenkz,33,2021-11-29T14:07:01.502Z,gomot_a.0068.eq.wav,1,2,224.80189054,-4.77525165,True,1545
101,13,4,kjkkdjzhecihenkz,33,2021-11-29T14:07:01.502Z,gomot_a.0068.eq.wav,1,3,362.97743001,4.23970942,True,1545
101,13,4,kjkkdjzhecihenkz,33,2021-11-29T14:07:01.502Z,gomot_a.0068.eq.wav,1,4,521.79790965,2.94671015,True,1545
101,13,4,kjkkdjzhecihenkz,33,2021-11-29T14:07:01.502Z,gomot_a.0068.eq.wav,1,5,704.34790983,0.13106804,True,1545
101,13,4,kjkkdjzhecihenkz,33,2021-11-29T14:07:01.502Z,gomot_a.0068.eq.wav,1,6,914.17288101,2.91408920,True,1545
101,13,4,kjkkdjzhecihenkz,33,2021-11-29T14:07:01.502Z,gomot_a.0068.eq.wav,1,7,1155.34800284,2.94453135,True,1545
101,13,4,kjkkdjzhecihenkz,33,2021-11-29T14:07:01.502Z,gomot_a.0068.eq.wav,1,8,1432.55733147,1.23029286,True,1545
101,13,4,kjkkdjzhecihenkz,33,2021-11-29T14:07:01.502Z,gomot_a.0068.eq.wav,1,9,1751.18477235,-0.94350158,True,1545
101,13,4,kjkkdjzhecihenkz,33,2021-11-29T14:07:01.502Z,gomot_a.0068.eq.wav,1,10,2117.41864548,-0.12262200,True,1545
101,13,4,kjkkdjzhecihenkz,33,2021-11-29T14:07:01.502Z,gomot_a.0068.eq.wav,1,11,2538.37187364,0.28053298,True,1545
101,13,4,kjkkdjzhecihenkz,33,2021-11-29T14:07:01.502Z,gomot_a.0068.eq.wav,1,12,3022.22012828,-0.35853131,True,1545
101,13,4,kjkkdjzhecihenkz,33,2021-11-29T14:07:01.502Z,gomot_a.0068.eq.wav,1,13,3578.36061576,-2.23411280,True,1545
101,13,4,kjkkdjzhecihenkz,33,2021-11-29T14:07:01.502Z,gomot_a.0068.eq.wav,1,14,4217.59458808,0.57509411,True,1545
101,13,4,kjkkdjzhecihenkz,33,2021-11-29T14:07:01.502Z,gomot_a.0068.eq.wav,1,15,4952.33712269,-0.71144747,True,1545
101,13,4,kjkkdjzhecihenkz,33,2021-11-29T14:07:01.502Z,gomot_a.0068.eq.wav,1,16,5796.85824570,-1.25644044,True,1545
101,13,4,kjkkdjzhecihenkz,33,2021-11-29T14:07:01.502Z,gomot_a.0068.eq.wav,1,17,6767.56008152,4.19172280,True,1545
101,13,4,kjkkdjzhecihenkz,33,2021-11-29T14:07:01.502Z,gomot_a.0068.eq.wav,1,18,7883.29541175,-4.05598917,True,1545
101,13,4,kjkkdjzhecihenkz,33,2021-11-29T14:07:01.502Z,gomot_a.0068.eq.wav,1,19,9165.73383021,2.66338322,True,1545
101,13,4,kjkkdjzhecihenkz,33,2021-11-29T14:07:01.502Z,gomot_a.0068.eq.wav,1,20,10639.78260555,-4.19822717,True,1545
101,13,4,kjkkdjzhecihenkz,33,2021-11-29T14:07:01.502Z,gomot_a.0068.eq.wav,1,21,12334.07042541,3.53687853,True,1545
101,13,4,kjkkdjzhecihenkz,33,2021-11-29T14:07:01.502Z,gomot_a.0068.eq.wav,1,22,14281.50341712,1.70123015,True,1545
101,13,4,kjkkdjzhecihenkz,33,2021-11-29T14:07:01.502Z,gomot_a.0068.eq.wav,1,23,16519.90424416,1.42643253,True,1545
101,13,4,kjkkdjzhecihenkz,33,2021-11-29T14:07:01.502Z,gomot_a.0068.eq.wav,1,24,19092.74669051,3.78469126,True,1545
101,13,4,kjkkdjzhecihenkz,33,2021-11-29T14:07:01.502Z,gomot_a.0068.eq.wav,1,25,22050.00000000,2.89122132,True,1545
101,14,4,kjkkdjzhecihenkz,33,2021-11-29T14:07:01.502Z,gomot_a.0010.eq.wav,0,0,0.00000000,4.76484818,True,291
101,14,4,kjkkdjzhecihenkz,33,2021-11-29T14:07:01.502Z,gomot_a.0010.eq.wav,0,1,104.58767290,-3.64123341,True,291
101,14,4,kjkkdjzhecihenkz,33,2021-11-29T14:07:01.502Z,gomot_a.0010.eq.wav,0,2,224.80189054,-3.29929552,True,291
101,14,4,kjkkdjzhecihenkz,33,2021-11-29T14:07:01.502Z,gomot_a.0010.eq.wav,0,3,362.97743001,-1.35130748,True,291
101,14,4,kjkkdjzhecihenkz,33,2021-11-29T14:07:01.502Z,gomot_a.0010.eq.wav,0,4,521.79790965,-0.42802776,True,291
101,14,4,kjkkdjzhecihenkz,33,2021-11-29T14:07:01.502Z,gomot_a.0010.eq.wav,0,5,704.34790983,0.48684698,True,291
101,14,4,kjkkdjzhecihenkz,33,2021-11-29T14:07:01.502Z,gomot_a.0010.eq.wav,0,6,914.17288101,3.42049675,True,291
101,14,4,kjkkdjzhecihenkz,33,2021-11-29T14:07:01.502Z,gomot_a.0010.eq.wav,0,7,1155.34800284,-3.92619999,True,291
101,14,4,kjkkdjzhecihenkz,33,2021-11-29T14:07:01.502Z,gomot_a.0010.eq.wav,0,8,1432.55733147,-1.48386306,True,291
101,14,4,kjkkdjzhecihenkz,33,2021-11-29T14:07:01.502Z,gomot_a.0010.eq.wav,0,9,1751.18477235,1.59071940,True,291
101,14,4,kjkkdjzhecihenkz,33,2021-11-29T14:07:01.502Z,gomot_a.0010.eq.wav,0,10,2117.41864548,4.80709452,True,291
101,14,4,kjkkdjzhecihenkz,33,2021-11-29T14:07:01.502Z,gomot_a.0010.eq.wav,0,11,2538.37187364,-2.95180845,True,291
101,14,4,kjkkdjzhecihenkz,33,2021-11-29T14:07:01.502Z,gomot_a.0010.eq.wav,0,12,3022.22012828,3.03655648,True,291
101,14,4,kjkkdjzhecihenkz,33,2021-11-29T14:07:01.502Z,gomot_a.0010.eq.wav,0,13,3578.36061576,0.19126030,True,291
101,14,4,kjkkdjzhecihenkz,33,2021-11-29T14:07:01.502Z,gomot_a.0010.eq.wav,0,14,4217.59458808,2.80282884,True,291
101,14,4,kjkkdjzhecihenkz,33,2021-11-29T14:07:01.502Z,gomot_a.0010.eq.wav,0,15,4952.33712269,-4.33460234,True,291
101,14,4,kjkkdjzhecihenkz,33,2021-11-29T14:07:01.502Z,gomot_a.0010.eq.wav,0,16,5796.85824570,-2.93737939,True,291
101,14,4,kjkkdjzhecihenkz,33,2021-11-29T14:07:01.502Z,gomot_a.0010.eq.wav,0,17,6767.56008152,2.70699874,True,291
101,14,4,kjkkdjzhecihenkz,33,2021-11-29T14:07:01.502Z,gomot_a.0010.eq.wav,0,18,7883.29541175,0.89940852,True,291
101,14,4,kjkkdjzhecihenkz,33,2021-11-29T14:07:01.502Z,gomot_a.0010.eq.wav,0,19,9165.73383021,-3.24959485,True,291
101,14,4,kjkkdjzhecihenkz,33,2021-11-29T14:07:01.502Z,gomot_a.0010.eq.wav,0,20,10639.78260555,2.96451669,True,291
101,14,4,kjkkdjzhecihenkz,33,2021-11-29T14:07:01.502Z,gomot_a.0010.eq.wav,0,21,12334.07042541,0.36373860,True,291
101,14,4,kjkkdjzhecihenkz,33,2021-11-29T14:07:01.502Z,gomot_a.0010.eq.wav,0,22,14281.50341712,0.41700347,True,291
101,14,4,kjkkdjzhecihenkz,33,2021-11-29T14:07:01.502Z,gomot_a.0010.eq.wav,0,23,16519.90424416,0.00523963,True,291
101,14,4,kjkkdjzhecihenkz,33,2021-11-29T14:07:01.502Z,gomot_a.0010.eq.wav,0,24,19092.74669051,-2.29535379,True,291
101,14,4,kjkkdjzhecihenkz,33,2021-11-29T14:07:01.502Z,gomot_a.0010.eq.wav,0,25,22050.00000000,4.70737581,True,291
101,14,4,kjkkdjzhecihenkz,33,2021-11-29T14:07:01.502Z,gomot_a.0014.eq.wav,1,0,0.00000000,-2.34037570,False,291
101,14,4,kjkkdjzhecihenkz,33,2021-11-29T14:07:01.502Z,gomot_a.0014.eq.wav,1,1,104.58767290,4.98806250,False,291
101,14,4,kjkkdjzhecihenkz,33,2021-11-29T14:07:01.502Z,gomot_a.0014.eq.wav,1,2,224.80189054,-3.74871725,False,291
101,14,4,kjkkdjzhecihenkz,33,2021-11-29T14:07:01.502Z,gomot_a.0014.eq.wav,1,3,362.97743001,0.75287904,False,291
101,14,4,kjkkdjzhecihenkz,33,2021-11-29T14:07:01.502Z,gomot_a.0014.eq.wav,1,4,521.79790965,0.48929820,False,291
101,14,4,kjkkdjzhecihenkz,33,2021-11-29T14:07:01.502Z,gomot_a.0014.eq.wav,1,5,704.34790983,-0.16334447,False,291
101,14,4,kjkkdjzhecihenkz,33,2021-11-29T14:07:01.502Z,gomot_a.0014.eq.wav,1,6,914.17288101,2.26119480,False,291
101,14,4,kjkkdjzhecihenkz,33,2021-11-29T14:07:01.502Z,gomot_a.0014.eq.wav,1,7,1155.34800284,4.74075250,False,291
101,14,4,kjkkdjzhecihenkz,33,2021-11-29T14:07:01.502Z,gomot_a.0014.eq.wav,1,8,1432.55733147,3.19797381,False,291
101,14,4,kjkkdjzhecihenkz,33,2021-11-29T14:07:01.502Z,gomot_a.0014.eq.wav,1,9,1751.18477235,0.78873227,False,291
101,14,4,kjkkdjzhecihenkz,33,2021-11-29T14:07:01.502Z,gomot_a.0014.eq.wav,1,10,2117.41864548,-1.01208948,False,291
101,14,4,kjkkdjzhecihenkz,33,2021-11-29T14:07:01.502Z,gomot_a.0014.eq.wav,1,11,2538.37187364,-0.35758749,False,291
101,14,4,kjkkdjzhecihenkz,33,2021-11-29T14:07:01.502Z,gomot_a.0014.eq.wav,1,12,3022.22012828,-2.66828481,False,291
101,14,4,kjkkdjzhecihenkz,33,2021-11-29T14:07:01.502Z,gomot_a.0014.eq.wav,1,13,3578.36061576,0.54041368,False,291
101,14,4,kjkkdjzhecihenkz,33,2021-11-29T14:07:01.502Z,gomot_a.0014.eq.wav,1,14,4217.59458808,1.06190200,False,291
101,14,4,kjkkdjzhecihenkz,33,2021-11-29T14:07:01.502Z,gomot_a.0014.eq.wav,1,15,4952.33712269,3.94768985,False,291
101,14,4,kjkkdjzhecihenkz,33,2021-11-29T14:07:01.502Z,gomot_a.0014.eq.wav,1,16,5796.85824570,4.87768080,False,291
101,14,4,kjkkdjzhecihenkz,33,2021-11-29T14:07:01.502Z,gomot_a.0014.eq.wav,1,17,6767.56008152,3.41737702,False,291
101,14,4,kjkkdjzhecihenkz,33,2021-11-29T14:07:01.502Z,gomot_a.0014.eq.wav,1,18,7883.29541175,1.01658447,False,291
101,14,4,kjkkdjzhecihenkz,33,2021-11-29T14:07:01.502Z,gomot_a.0014.eq.wav,1,19,9165.73383021,-0.04927484,False,291
101,14,4,kjkkdjzhecihenkz,33,2021-11-29T14:07:01.502Z,gomot_a.0014.eq.wav,1,20,10639.78260555,-1.11159762,False,291
101,14,4,kjkkdjzhecihenkz,33,2021-11-29T14:07:01.502Z,gomot_a.0014.eq.wav,1,21,12334.07042541,-2.39319177,False,291
101,14,4,kjkkdjzhecihenkz,33,2021-11-29T14:07:01.502Z,gomot_a.0014.eq.wav,1,22,14281.50341712,2.92813613,False,291
101,14,4,kjkkdjzhecihenkz,33,2021-11-29T14:07:01.502Z,gomot_a.0014.eq.wav,1,23,16519.90424416,-1.53954881,False,291
101,14,4,kjkkdjzhecihenkz,33,2021-11-29T14:07:01.502Z,gomot_a.0014.eq.wav,1,24,19092.74669051,3.15470962,False,291
101,14,4,kjkkdjzhecihenkz,33,2021-11-29T14:07:01.502Z,gomot_a.0014.eq.wav,1,25,22050.00000000,-4.54208364,False,291
