subj,trial,block,sex,age,date,stim,stim_order,filter,filter_freq,filter_gain,response,rt
102,0,0,m,77,2021-11-23T15:05:09.357Z,gomot_a.0479.eq.wav,0,0,0.00000000,-4.34238084,True,1014
102,0,0,m,77,2021-11-23T15:05:09.357Z,gomot_a.0479.eq.wav,0,1,104.58767290,-0.24847993,True,1014
102,0,0,m,77,2021-11-23T15:05:09.357Z,gomot_a.0479.eq.wav,0,2,224.80189054,-3.62539863,True,1014
102,0,0,m,77,2021-11-23T15:05:09.357Z,gomot_a.0479.eq.wav,0,3,362.97743001,3.78614261,True,1014
102,0,0,m,77,2021-11-23T15:05:09.357Z,gomot_a.0479.eq.wav,0,4,521.79790965,3.33658278,True,1014
102,0,0,m,77,2021-11-23T15:05:09.357Z,gomot_a.0479.eq.wav,0,5,704.34790983,-3.18093115,True,1014
102,0,0,m,77,2021-11-23T15:05:09.357Z,gomot_a.0479.eq.wav,0,6,914.17288101,3.34943339,True,1014
102,0,0,m,77,2021-11-23T15:05:09.357Z,gomot_a.0479.eq.wav,0,7,1155.34800284,-4.04326264,True,1014
102,0,0,m,77,2021-11-23T15:05:09.357Z,gomot_a.0479.eq.wav,0,8,1432.55733147,4.47667182,True,1014
102,0,0,m,77,2021-11-23T15:05:09.357Z,gomot_a.0479.eq.wav,0,9,1751.18477235,-1.87432448,True,1014
102,0,0,m,77,2021-11-23T15:05:09.357Z,gomot_a.0479.eq.wav,0,10,2117.41864548,2.38741882,True,1014
102,0,0,m,77,2021-11-23T15:05:09.357Z,gomot_a.0479.eq.wav,0,11,2538.37187364,2.04452806,True,1014
102,0,0,m,77,2021-11-23T15:05:09.357Z,gomot_a.0479.eq.wav,0,12,3022.22012828,2.67315298,True,1014
102,0,0,m,77,2021-11-23T15:05:09.357Z,gomot_a.0479.eq.wav,0,13,3578.36061576,-4.17858468,True,1014
102,0,0,m,77,2021-11-23T15:05:09.357Z,gomot_a.0479.eq.wav,0,14,4217.59458808,3.14835809,True,1014
102,0,0,m,77,2021-11-23T15:05:09.357Z,gomot_a.0479.eq.wav,0,15,4952.33712269,2.60622256,True,1014
102,0,0,m,77,2021-11-23T15:05:09.357Z,gomot_a.0479.eq.wav,0,16,5796.85824570,0.36381317,True,1014
102,0,0,m,77,2021-11-23T15:05:09.357Z,gomot_a.0479.eq.wav,0,17,6767.56008152,-2.52377706,True,1014
102,0,0,m,77,2021-11-23T15:05:09.357Z,gomot_a.0479.eq.wav,0,18,7883.29541175,1.27566806,True,1014
102,0,0,m,77,2021-11-23T15:05:09.357Z,gomot_a.0479.eq.wav,0,19,9165.73383021,-1.91775466,True,1014
102,0,0,m,77,2021-11-23T15:05:09.357Z,gomot_a.0479.eq.wav,0,20,10639.78260555,0.66049527,True,1014
102,0,0,m,77,2021-11-23T15:05:09.357Z,gomot_a.0479.eq.wav,0,21,12334.07042541,-4.52271860,True,1014
102,0,0,m,77,2021-11-23T15:05:09.357Z,gomot_a.0479.eq.wav,0,22,14281.50341712,-3.91507393,True,1014
102,0,0,m,77,2021-11-23T15:05:09.357Z,gomot_a.0479.eq.wav,0,23,16519.90424416,0.12954832,True,1014
102,0,0,m,77,2021-11-23T15:05:09.357Z,gomot_a.0479.eq.wav,0,24,19092.74669051,-4.13721008,True,1014
102,0,0,m,77,2021-11-23T15:05:09.357Z,gomot_a.0479.eq.wav,0,25,22050.00000000,-1.51611859,True,1014
102,0,0,m,77,2021-11-23T15:05:09.357Z,gomot_a.0318.eq.wav,1,0,0.00000000,-0.58842399,False,1014
102,0,0,m,77,2021-11-23T15:05:09.357Z,gomot_a.0318.eq.wav,1,1,104.58767290,-0.10549294,False,1014
102,0,0,m,77,2021-11-23T15:05:09.357Z,gomot_a.0318.eq.wav,1,2,224.80189054,-3.20903204,False,1014
102,0,0,m,77,2021-11-23T15:05:09.357Z,gomot_a.0318.eq.wav,1,3,362.97743001,-0.15844247,False,1014
102,0,0,m,77,2021-11-23T15:05:09.357Z,gomot_a.0318.eq.wav,1,4,521.79790965,-0.34911499,False,1014
102,0,0,m,77,2021-11-23T15:05:09.357Z,gomot_a.0318.eq.wav,1,5,704.34790983,-3.88027443,False,1014
102,0,0,m,77,2021-11-23T15:05:09.357Z,gomot_a.0318.eq.wav,1,6,914.17288101,-1.63923873,False,1014
102,0,0,m,77,2021-11-23T15:05:09.357Z,gomot_a.0318.eq.wav,1,7,1155.34800284,-4.92584722,False,1014
102,0,0,m,77,2021-11-23T15:05:09.357Z,gomot_a.0318.eq.wav,1,8,1432.55733147,-3.27566890,False,1014
102,0,0,m,77,2021-11-23T15:05:09.357Z,gomot_a.0318.eq.wav,1,9,1751.18477235,3.31961442,False,1014
102,0,0,m,77,2021-11-23T15:05:09.357Z,gomot_a.0318.eq.wav,1,10,2117.41864548,4.87306402,False,1014
102,0,0,m,77,2021-11-23T15:05:09.357Z,gomot_a.0318.eq.wav,1,11,2538.37187364,-3.15204544,False,1014
102,0,0,m,77,2021-11-23T15:05:09.357Z,gomot_a.0318.eq.wav,1,12,3022.22012828,2.20007010,False,1014
102,0,0,m,77,2021-11-23T15:05:09.357Z,gomot_a.0318.eq.wav,1,13,3578.36061576,2.53025568,False,1014
102,0,0,m,77,2021-11-23T15:05:09.357Z,gomot_a.0318.eq.wav,1,14,4217.59458808,-2.61055325,False,1014
102,0,0,m,77,2021-11-23T15:05:09.357Z,gomot_a.0318.eq.wav,1,15,4952.33712269,0.28889181,False,1014
102,0,0,m,77,2021-11-23T15:05:09.357Z,gomot_a.0318.eq.wav,1,16,5796.85824570,3.68783765,False,1014
102,0,0,m,77,2021-11-23T15:05:09.357Z,gomot_a.0318.eq.wav,1,17,6767.56008152,1.82291621,False,1014
102,0,0,m,77,2021-11-23T15:05:09.357Z,gomot_a.0318.eq.wav,1,18,7883.29541175,1.20813278,False,1014
102,0,0,m,77,2021-11-23T15:05:09.357Z,gomot_a.0318.eq.wav,1,19,9165.73383021,3.70593523,False,1014
102,0,0,m,77,2021-11-23T15:05:09.357Z,gomot_a.0318.eq.wav,1,20,10639.78260555,3.33600426,False,1014
102,0,0,m,77,2021-11-23T15:05:09.357Z,gomot_a.0318.eq.wav,1,21,12334.07042541,-2.27261155,False,1014
102,0,0,m,77,2021-11-23T15:05:09.357Z,gomot_a.0318.eq.wav,1,22,14281.50341712,-3.88854041,False,1014
102,0,0,m,77,2021-11-23T15:05:09.357Z,gomot_a.0318.eq.wav,1,23,16519.90424416,2.02923677,False,1014
102,0,0,m,77,2021-11-23T15:05:09.357Z,gomot_a.0318.eq.wav,1,24,19092.74669051,-1.09362329,False,1014
102,0,0,m,77,2021-11-23T15:05:09.357Z,gomot_a.0318.eq.wav,1,25,22050.00000000,4.66520831,False,1014
102,1,0,m,77,2021-11-23T15:05:09.357Z,gomot_a.0536.eq.wav,0,0,0.00000000,-0.29757254,False,376
102,1,0,m,77,2021-11-23T15:05:09.357Z,gomot_a.0536.eq.wav,0,1,104.58767290,2.54261707,False,376
102,1,0,m,77,2021-11-23T15:05:09.357Z,gomot_a.0536.eq.wav,0,2,224.80189054,-4.06817157,False,376
102,1,0,m,77,2021-11-23T15:05:09.357Z,gomot_a.0536.eq.wav,0,3,362.97743001,-4.14460435,False,376
102,1,0,m,77,2021-11-23T15:05:09.357Z,gomot_a.0536.eq.wav,0,4,521.79790965,-2.64359388,False,376
102,1,0,m,77,2021-11-23T15:05:09.357Z,gomot_a.0536.eq.wav,0,5,704.34790983,2.53820039,False,376
102,1,0,m,77,2021-11-23T15:05:09.357Z,gomot_a.0536.eq.wav,0,6,914.17288101,-4.52174429,False,376
102,1,0,m,77,2021-11-23T15:05:09.357Z,gomot_a.0536.eq.wav,0,7,1155.34800284,-4.77736178,False,376
102,1,0,m,77,2021-11-23T15:05:09.357Z,gomot_a.0536.eq.wav,0,8,1432.55733147,2.07736180,False,376
102,1,0,m,77,2021-11-23T15:05:09.357Z,gomot_a.0536.eq.wav,0,9,1751.18477235,3.90285931,False,376
102,1,0,m,77,2021-11-23T15:05:09.357Z,gomot_a.0536.eq.wav,0,10,2117.41864548,1.10412313,False,376
102,1,0,m,77,2021-11-23T15:05:09.357Z,gomot_a.0536.eq.wav,0,11,2538.37187364,-1.11036554,False,376
102,1,0,m,77,2021-11-23T15:05:09.357Z,gomot_a.0536.eq.wav,0,12,3022.22012828,2.22892807,False,376
102,1,0,m,77,2021-11-23T15:05:09.357Z,gomot_a.0536.eq.wav,0,13,3578.36061576,-2.75651906,False,376
102,1,0,m,77,2021-11-23T15:05:09.357Z,gomot_a.0536.eq.wav,0,14,4217.59458808,-2.14373846,False,376
102,1,0,m,77,2021-11-23T15:05:09.357Z,gomot_a.0536.eq.wav,0,15,4952.33712269,-1.12924184,False,376
102,1,0,m,77,2021-11-23T15:05:09.357Z,gomot_a.0536.eq.wav,0,16,5796.85824570,-1.01752561,False,376
102,1,0,m,77,2021-11-23T15:05:09.357Z,gomot_a.0536.eq.wav,0,17,6767.56008152,-4.02060225,False,376
102,1,0,m,77,2021-11-23T15:05:09.357Z,gomot_a.0536.eq.wav,0,18,7883.29541175,1.11799087,False,376
102,1,0,m,77,2021-11-23T15:05:09.357Z,gomot_a.0536.eq.wav,0,19,9165.73383021,-2.36121112,False,376
102,1,0,m,77,2021-11-23T15:05:09.357Z,gomot_a.0536.eq.wav,0,20,10639.78260555,-4.25377304,False,376
102,1,0,m,77,2021-11-23T15:05:09.357Z,gomot_a.0536.eq.wav,0,21,12334.07042541,1.01007340,False,376
102,1,0,m,77,2021-11-23T15:05:09.357Z,gomot_a.0536.eq.wav,0,22,14281.50341712,2.73041142,False,376
102,1,0,m,77,2021-11-23T15:05:09.357Z,gomot_a.0536.eq.wav,0,23,16519.90424416,2.69094053,False,376
102,1,0,m,77,2021-11-23T15:05:09.357Z,gomot_a.0536.eq.wav,0,24,19092.74669051,-1.67602928,False,376
102,1,0,m,77,2021-11-23T15:05:09.357Z,gomot_a.0536.eq.wav,0,25,22050.00000000,-2.92205042,False,376
102,1,0,m,77,2021-11-23T15:05:09.357Z,gomot_a.0596.eq.wav,1,0,0.00000000,4.41137013,True,376
102,1,0,m,77,2021-11-23T15:05:09.357Z,gomot_a.0596.eq.wav,1,1,104.58767290,-0.28127835,True,376
102,1,0,m,77,2021-11-23T15:05:09.357Z,gomot_a.0596.eq.wav,1,2,224.80189054,3.24522902,True,376
102,1,0,m,77,2021-11-23T15:05:09.357Z,gomot_a.0596.eq.wav,1,3,362.97743001,0.42828323,True,376
102,1,0,m,77,2021-11-23T15:05:09.357Z,gomot_a.0596.eq.wav,1,4,521.79790965,4.29879729,True,376
102,1,0,m,77,2021-11-23T15:05:09.357Z,gomot_a.0596.eq.wav,1,5,704.34790983,-3.92587324,True,376
102,1,0,m,77,2021-11-23T15:05:09.357Z,gomot_a.0596.eq.wav,1,6,914.17288101,-2.26697079,True,376
102,1,0,m,77,2021-11-23T15:05:09.357Z,gomot_a.0596.eq.wav,1,7,1155.34800284,4.05710010,True,376
102,1,0,m,77,2021-11-23T15:05:09.357Z,gomot_a.0596.eq.wav,1,8,1432.55733147,2.53292049,True,376
102,1,0,m,77,2021-11-23T15:05:09.357Z,gomot_a.0596.eq.wav,1,9,1751.18477235,-4.22959484,True,376
102,1,0,m,77,2021-11-23T15:05:09.357Z,gomot_a.0596.eq.wav,1,10,2117.41864548,1.57358179,True,376
102,1,0,m,77,2021-11-23T15:05:09.357Z,gomot_a.0596.eq.wav,1,11,2538.37187364,-0.86032020,True,376
102,1,0,m,77,2021-11-23T15:05:09.357Z,gomot_a.0596.eq.wav,1,12,3022.22012828,0.91660177,True,376
102,1,0,m,77,2021-11-23T15:05:09.357Z,gomot_a.0596.eq.wav,1,13,3578.36061576,-2.65771985,True,376
102,1,0,m,77,2021-11-23T15:05:09.357Z,gomot_a.0596.eq.wav,1,14,4217.59458808,-3.66034447,True,376
102,1,0,m,77,2021-11-23T15:05:09.357Z,gomot_a.0596.eq.wav,1,15,4952.33712269,-0.19494217,True,376
102,1,0,m,77,2021-11-23T15:05:09.357Z,gomot_a.0596.eq.wav,1,16,5796.85824570,-3.50704669,True,376
102,1,0,m,77,2021-11-23T15:05:09.357Z,gomot_a.0596.eq.wav,1,17,6767.56008152,0.76302061,True,376
102,1,0,m,77,2021-11-23T15:05:09.357Z,gomot_a.0596.eq.wav,1,18,7883.29541175,4.20628497,True,376
102,1,0,m,77,2021-11-23T15:05:09.357Z,gomot_a.0596.eq.wav,1,19,9165.73383021,4.24116538,True,376
102,1,0,m,77,2021-11-23T15:05:09.357Z,gomot_a.0596.eq.wav,1,20,10639.78260555,2.66010908,True,376
102,1,0,m,77,2021-11-23T15:05:09.357Z,gomot_a.0596.eq.wav,1,21,12334.07042541,1.55616941,True,376
102,1,0,m,77,2021-11-23T15:05:09.357Z,gomot_a.0596.eq.wav,1,22,14281.50341712,1.03926860,True,376
102,1,0,m,77,2021-11-23T15:05:09.357Z,gomot_a.0596.eq.wav,1,23,16519.90424416,-0.65954597,True,376
102,1,0,m,77,2021-11-23T15:05:09.357Z,gomot_a.0596.eq.wav,1,24,19092.74669051,-2.70568647,True,376
102,1,0,m,77,2021-11-23T15:05:09.357Z,gomot_a.0596.eq.wav,1,25,22050.00000000,-2.25081141,True,376
102,2,0,m,77,2021-11-23T15:05:09.357Z,gomot_a.0289.eq.wav,0,0,0.00000000,-4.97755514,True,379
102,2,0,m,77,2021-11-23T15:05:09.357Z,gomot_a.0289.eq.wav,0,1,104.58767290,3.34524159,True,379
102,2,0,m,77,2021-11-23T15:05:09.357Z,gomot_a.0289.eq.wav,0,2,224.80189054,3.11553984,True,379
102,2,0,m,77,2021-11-23T15:05:09.357Z,gomot_a.0289.eq.wav,0,3,362.97743001,-1.16545006,True,379
102,2,0,m,77,2021-11-23T15:05:09.357Z,gomot_a.0289.eq.wav,0,4,521.79790965,-1.08896414,True,379
102,2,0,m,77,2021-11-23T15:05:09.357Z,gomot_a.0289.eq.wav,0,5,704.34790983,0.88778010,True,379
102,2,0,m,77,2021-11-23T15:05:09.357Z,gomot_a.0289.eq.wav,0,6,914.17288101,-2.71389310,True,379
102,2,0,m,77,2021-11-23T15:05:09.357Z,gomot_a.0289.eq.wav,0,7,1155.34800284,-0.42529018,True,379
102,2,0,m,77,2021-11-23T15:05:09.357Z,gomot_a.0289.eq.wav,0,8,1432.55733147,-1.59005049,True,379
102,2,0,m,77,2021-11-23T15:05:09.357Z,gomot_a.0289.eq.wav,0,9,1751.18477235,3.36338341,True,379
102,2,0,m,77,2021-11-23T15:05:09.357Z,gomot_a.0289.eq.wav,0,10,2117.41864548,-3.57833352,True,379
102,2,0,m,77,2021-11-23T15:05:09.357Z,gomot_a.0289.eq.wav,0,11,2538.37187364,-2.28075875,True,379
102,2,0,m,77,2021-11-23T15:05:09.357Z,gomot_a.0289.eq.wav,0,12,3022.22012828,2.56796302,True,379
102,2,0,m,77,2021-11-23T15:05:09.357Z,gomot_a.0289.eq.wav,0,13,3578.36061576,0.68817943,True,379
102,2,0,m,77,2021-11-23T15:05:09.357Z,gomot_a.0289.eq.wav,0,14,4217.59458808,0.56565179,True,379
102,2,0,m,77,2021-11-23T15:05:09.357Z,gomot_a.0289.eq.wav,0,15,4952.33712269,-0.17179479,True,379
102,2,0,m,77,2021-11-23T15:05:09.357Z,gomot_a.0289.eq.wav,0,16,5796.85824570,0.92212805,True,379
102,2,0,m,77,2021-11-23T15:05:09.357Z,gomot_a.0289.eq.wav,0,17,6767.56008152,3.27307499,True,379
102,2,0,m,77,2021-11-23T15:05:09.357Z,gomot_a.0289.eq.wav,0,18,7883.29541175,4.17310363,True,379
102,2,0,m,77,2021-11-23T15:05:09.357Z,gomot_a.0289.eq.wav,0,19,9165.73383021,2.26693725,True,379
102,2,0,m,77,2021-11-23T15:05:09.357Z,gomot_a.0289.eq.wav,0,20,10639.78260555,-3.59056666,True,379
102,2,0,m,77,2021-11-23T15:05:09.357Z,gomot_a.0289.eq.wav,0,21,12334.07042541,4.57683852,True,379
102,2,0,m,77,2021-11-23T15:05:09.357Z,gomot_a.0289.eq.wav,0,22,14281.50341712,-1.06833889,True,379
102,2,0,m,77,2021-11-23T15:05:09.357Z,gomot_a.0289.eq.wav,0,23,16519.90424416,1.84399674,True,379
102,2,0,m,77,2021-11-23T15:05:09.357Z,gomot_a.0289.eq.wav,0,24,19092.74669051,-3.90733268,True,379
102,2,0,m,77,2021-11-23T15:05:09.357Z,gomot_a.0289.eq.wav,0,25,22050.00000000,-0.67349292,True,379
102,2,0,m,77,2021-11-23T15:05:09.357Z,gomot_a.0199.eq.wav,1,0,0.00000000,-2.22971343,False,379
102,2,0,m,77,2021-11-23T15:05:09.357Z,gomot_a.0199.eq.wav,1,1,104.58767290,-2.67809696,False,379
102,2,0,m,77,2021-11-23T15:05:09.357Z,gomot_a.0199.eq.wav,1,2,224.80189054,1.03717314,False,379
102,2,0,m,77,2021-11-23T15:05:09.357Z,gomot_a.0199.eq.wav,1,3,362.97743001,-4.55147913,False,379
102,2,0,m,77,2021-11-23T15:05:09.357Z,gomot_a.0199.eq.wav,1,4,521.79790965,4.13447879,False,379
102,2,0,m,77,2021-11-23T15:05:09.357Z,gomot_a.0199.eq.wav,1,5,704.34790983,-2.97464224,False,379
102,2,0,m,77,2021-11-23T15:05:09.357Z,gomot_a.0199.eq.wav,1,6,914.17288101,-3.82131611,False,379
102,2,0,m,77,2021-11-23T15:05:09.357Z,gomot_a.0199.eq.wav,1,7,1155.34800284,1.81190105,False,379
102,2,0,m,77,2021-11-23T15:05:09.357Z,gomot_a.0199.eq.wav,1,8,1432.55733147,3.00815692,False,379
102,2,0,m,77,2021-11-23T15:05:09.357Z,gomot_a.0199.eq.wav,1,9,1751.18477235,3.05370022,False,379
102,2,0,m,77,2021-11-23T15:05:09.357Z,gomot_a.0199.eq.wav,1,10,2117.41864548,4.06538478,False,379
102,2,0,m,77,2021-11-23T15:05:09.357Z,gomot_a.0199.eq.wav,1,11,2538.37187364,-1.70823192,False,379
102,2,0,m,77,2021-11-23T15:05:09.357Z,gomot_a.0199.eq.wav,1,12,3022.22012828,2.02260635,False,379
102,2,0,m,77,2021-11-23T15:05:09.357Z,gomot_a.0199.eq.wav,1,13,3578.36061576,0.93725797,False,379
102,2,0,m,77,2021-11-23T15:05:09.357Z,gomot_a.0199.eq.wav,1,14,4217.59458808,-4.70505146,False,379
102,2,0,m,77,2021-11-23T15:05:09.357Z,gomot_a.0199.eq.wav,1,15,4952.33712269,1.02130956,False,379
102,2,0,m,77,2021-11-23T15:05:09.357Z,gomot_a.0199.eq.wav,1,16,5796.85824570,-1.56945574,False,379
102,2,0,m,77,2021-11-23T15:05:09.357Z,gomot_a.0199.eq.wav,1,17,6767.56008152,3.24904792,False,379
102,2,0,m,77,2021-11-23T15:05:09.357Z,gomot_a.0199.eq.wav,1,18,7883.29541175,4.29525266,False,379
102,2,0,m,77,2021-11-23T15:05:09.357Z,gomot_a.0199.eq.wav,1,19,9165.73383021,-1.85392041,False,379
102,2,0,m,77,2021-11-23T15:05:09.357Z,gomot_a.0199.eq.wav,1,20,10639.78260555,-4.43009131,False,379
102,2,0,m,77,2021-11-23T15:05:09.357Z,gomot_a.0199.eq.wav,1,21,12334.07042541,0.35215445,False,379
102,2,0,m,77,2021-11-23T15:05:09.357Z,gomot_a.0199.eq.wav,1,22,14281.50341712,-0.92834593,False,379
102,2,0,m,77,2021-11-23T15:05:09.357Z,gomot_a.0199.eq.wav,1,23,16519.90424416,-1.52939648,False,379
102,2,0,m,77,2021-11-23T15:05:09.357Z,gomot_a.0199.eq.wav,1,24,19092.74669051,2.32272987,False,379
102,2,0,m,77,2021-11-23T15:05:09.357Z,gomot_a.0199.eq.wav,1,25,22050.00000000,2.33124660,False,379
102,3,1,m,77,2021-11-23T15:05:09.357Z,gomot_a.0227.eq.wav,0,0,0.00000000,0.30392329,True,609
102,3,1,m,77,2021-11-23T15:05:09.357Z,gomot_a.0227.eq.wav,0,1,104.58767290,1.86264901,True,609
102,3,1,m,77,2021-11-23T15:05:09.357Z,gomot_a.0227.eq.wav,0,2,224.80189054,3.78301179,True,609
102,3,1,m,77,2021-11-23T15:05:09.357Z,gomot_a.0227.eq.wav,0,3,362.97743001,0.58216804,True,609
102,3,1,m,77,2021-11-23T15:05:09.357Z,gomot_a.0227.eq.wav,0,4,521.79790965,-4.82537275,True,609
102,3,1,m,77,2021-11-23T15:05:09.357Z,gomot_a.0227.eq.wav,0,5,704.34790983,2.79467787,True,609
102,3,1,m,77,2021-11-23T15:05:09.357Z,gomot_a.0227.eq.wav,0,6,914.17288101,1.19589425,True,609
102,3,1,m,77,2021-11-23T15:05:09.357Z,gomot_a.0227.eq.wav,0,7,1155.34800284,-4.92585700,True,609
102,3,1,m,77,2021-11-23T15:05:09.357Z,gomot_a.0227.eq.wav,0,8,1432.55733147,-1.41421986,True,609
102,3,1,m,77,2021-11-23T15:05:09.357Z,gomot_a.0227.eq.wav,0,9,1751.18477235,3.62248908,True,609
102,3,1,m,77,2021-11-23T15:05:09.357Z,gomot_a.0227.eq.wav,0,10,2117.41864548,1.05781121,True,609
102,3,1,m,77,2021-11-23T15:05:09.357Z,gomot_a.0227.eq.wav,0,11,2538.37187364,-3.96517715,True,609
102,3,1,m,77,2021-11-23T15:05:09.357Z,gomot_a.0227.eq.wav,0,12,3022.22012828,2.62487486,True,609
102,3,1,m,77,2021-11-23T15:05:09.357Z,gomot_a.0227.eq.wav,0,13,3578.36061576,-0.71676209,True,609
102,3,1,m,77,2021-11-23T15:05:09.357Z,gomot_a.0227.eq.wav,0,14,4217.59458808,0.80336790,True,609
102,3,1,m,77,2021-11-23T15:05:09.357Z,gomot_a.0227.eq.wav,0,15,4952.33712269,-0.30520714,True,609
102,3,1,m,77,2021-11-23T15:05:09.357Z,gomot_a.0227.eq.wav,0,16,5796.85824570,1.67292107,True,609
102,3,1,m,77,2021-11-23T15:05:09.357Z,gomot_a.0227.eq.wav,0,17,6767.56008152,-1.72291318,True,609
102,3,1,m,77,2021-11-23T15:05:09.357Z,gomot_a.0227.eq.wav,0,18,7883.29541175,-1.51459156,True,609
102,3,1,m,77,2021-11-23T15:05:09.357Z,gomot_a.0227.eq.wav,0,19,9165.73383021,-3.76611228,True,609
102,3,1,m,77,2021-11-23T15:05:09.357Z,gomot_a.0227.eq.wav,0,20,10639.78260555,1.53053032,True,609
102,3,1,m,77,2021-11-23T15:05:09.357Z,gomot_a.0227.eq.wav,0,21,12334.07042541,-1.83309597,True,609
102,3,1,m,77,2021-11-23T15:05:09.357Z,gomot_a.0227.eq.wav,0,22,14281.50341712,1.65203352,True,609
102,3,1,m,77,2021-11-23T15:05:09.357Z,gomot_a.0227.eq.wav,0,23,16519.90424416,3.22614742,True,609
102,3,1,m,77,2021-11-23T15:05:09.357Z,gomot_a.0227.eq.wav,0,24,19092.74669051,-2.42164397,True,609
102,3,1,m,77,2021-11-23T15:05:09.357Z,gomot_a.0227.eq.wav,0,25,22050.00000000,-2.72707201,True,609
102,3,1,m,77,2021-11-23T15:05:09.357Z,gomot_a.0557.eq.wav,1,0,0.00000000,-3.17565644,False,609
102,3,1,m,77,2021-11-23T15:05:09.357Z,gomot_a.0557.eq.wav,1,1,104.58767290,-2.21803471,False,609
102,3,1,m,77,2021-11-23T15:05:09.357Z,gomot_a.0557.eq.wav,1,2,224.80189054,1.17127469,False,609
102,3,1,m,77,2021-11-23T15:05:09.357Z,gomot_a.0557.eq.wav,1,3,362.97743001,3.28409787,False,609
102,3,1,m,77,2021-11-23T15:05:09.357Z,gomot_a.0557.eq.wav,1,4,521.79790965,4.16216955,False,609
102,3,1,m,77,2021-11-23T15:05:09.357Z,gomot_a.0557.eq.wav,1,5,704.34790983,3.27939216,False,609
102,3,1,m,77,2021-11-23T15:05:09.357Z,gomot_a.0557.eq.wav,1,6,914.17288101,-0.98201976,False,609
102,3,1,m,77,2021-11-23T15:05:09.357Z,gomot_a.0557.eq.wav,1,7,1155.34800284,-1.14591300,False,609
102,3,1,m,77,2021-11-23T15:05:09.357Z,gomot_a.0557.eq.wav,1,8,1432.55733147,1.93496062,False,609
102,3,1,m,77,2021-11-23T15:05:09.357Z,gomot_a.0557.eq.wav,1,9,1751.18477235,2.83849678,False,609
102,3,1,m,77,2021-11-23T15:05:09.357Z,gomot_a.0557.eq.wav,1,10,2117.41864548,2.85331284,False,609
102,3,1,m,77,2021-11-23T15:05:09.357Z,gomot_a.0557.eq.wav,1,11,2538.37187364,0.28552961,False,609
102,3,1,m,77,2021-11-23T15:05:09.357Z,gomot_a.0557.eq.wav,1,12,3022.22012828,2.51319415,False,609
102,3,1,m,77,2021-11-23T15:05:09.357Z,gomot_a.0557.eq.wav,1,13,3578.36061576,-2.90124022,False,609
102,3,1,m,77,2021-11-23T15:05:09.357Z,gomot_a.0557.eq.wav,1,14,4217.59458808,2.92073125,False,609
102,3,1,m,77,2021-11-23T15:05:09.357Z,gomot_a.0557.eq.wav,1,15,4952.33712269,0.85275407,False,609
102,3,1,m,77,2021-11-23T15:05:09.357Z,gomot_a.0557.eq.wav,1,16,5796.85824570,-0.43225613,False,609
102,3,1,m,77,2021-11-23T15:05:09.357Z,gomot_a.0557.eq.wav,1,17,6767.56008152,-1.96143226,False,609
102,3,1,m,77,2021-11-23T15:05:09.357Z,gomot_a.0557.eq.wav,1,18,7883.29541175,-2.32943396,False,609
102,3,1,m,77,2021-11-23T15:05:09.357Z,gomot_a.0557.eq.wav,1,19,9165.73383021,1.91363715,False,609
102,3,1,m,77,2021-11-23T15:05:09.357Z,gomot_a.0557.eq.wav,1,20,10639.78260555,-0.39972405,False,609
102,3,1,m,77,2021-11-23T15:05:09.357Z,gomot_a.0557.eq.wav,1,21,12334.07042541,1.04113064,False,609
102,3,1,m,77,2021-11-23T15:05:09.357Z,gomot_a.0557.eq.wav,1,22,14281.50341712,2.84759285,False,609
102,3,1,m,77,2021-11-23T15:05:09.357Z,gomot_a.0557.eq.wav,1,23,16519.90424416,1.49386598,False,609
102,3,1,m,77,2021-11-23T15:05:09.357Z,gomot_a.0557.eq.wav,1,24,19092.74669051,-1.05800866,False,609
102,3,1,m,77,2021-11-23T15:05:09.357Z,gomot_a.0557.eq.wav,1,25,22050.00000000,-3.15728475,False,609
102,4,1,m,77,2021-11-23T15:05:09.357Z,gomot_a.0215.eq.wav,0,0,0.00000000,-3.57113954,True,270
102,4,1,m,77,2021-11-23T15:05:09.357Z,gomot_a.0215.eq.wav,0,1,104.58767290,3.29965950,True,270
102,4,1,m,77,2021-11-23T15:05:09.357Z,gomot_a.0215.eq.wav,0,2,224.80189054,-1.04788402,True,270
102,4,1,m,77,2021-11-23T15:05:09.357Z,gomot_a.0215.eq.wav,0,3,362.97743001,1.73925550,True,270
102,4,1,m,77,2021-11-23T15:05:09.357Z,gomot_a.0215.eq.wav,0,4,521.79790965,-1.15982543,True,270
102,4,1,m,77,2021-11-23T15:05:09.357Z,gomot_a.0215.eq.wav,0,5,704.34790983,-0.50065919,True,270
102,4,1,m,77,2021-11-23T15:05:09.357Z,gomot_a.0215.eq.wav,0,6,914.17288101,-1.10847631,True,270
102,4,1,m,77,2021-11-23T15:05:09.357Z,gomot_a.0215.eq.wav,0,7,1155.34800284,3.45915747,True,270
102,4,1,m,77,2021-11-23T15:05:09.357Z,gomot_a.0215.eq.wav,0,8,1432.55733147,0.12824614,True,270
102,4,1,m,77,2021-11-23T15:05:09.357Z,gomot_a.0215.eq.wav,0,9,1751.18477235,1.87416578,True,270
102,4,1,m,77,2021-11-23T15:05:09.357Z,gomot_a.0215.eq.wav,0,10,2117.41864548,-1.07200234,True,270
102,4,1,m,77,2021-11-23T15:05:09.357Z,gomot_a.0215.eq.wav,0,11,2538.37187364,-1.24510862,True,270
102,4,1,m,77,2021-11-23T15:05:09.357Z,gomot_a.0215.eq.wav,0,12,3022.22012828,-4.61782347,True,270
102,4,1,m,77,2021-11-23T15:05:09.357Z,gomot_a.0215.eq.wav,0,13,3578.36061576,0.25342995,True,270
102,4,1,m,77,2021-11-23T15:05:09.357Z,gomot_a.0215.eq.wav,0,14,4217.59458808,-0.22723587,True,270
102,4,1,m,77,2021-11-23T15:05:09.357Z,gomot_a.0215.eq.wav,0,15,4952.33712269,4.67494915,True,270
102,4,1,m,77,2021-11-23T15:05:09.357Z,gomot_a.0215.eq.wav,0,16,5796.85824570,-0.65384805,True,270
102,4,1,m,77,2021-11-23T15:05:09.357Z,gomot_a.0215.eq.wav,0,17,6767.56008152,-3.78914139,True,270
102,4,1,m,77,2021-11-23T15:05:09.357Z,gomot_a.0215.eq.wav,0,18,7883.29541175,4.73473645,True,270
102,4,1,m,77,2021-11-23T15:05:09.357Z,gomot_a.0215.eq.wav,0,19,9165.73383021,-2.07107551,True,270
102,4,1,m,77,2021-11-23T15:05:09.357Z,gomot_a.0215.eq.wav,0,20,10639.78260555,-2.09319759,True,270
102,4,1,m,77,2021-11-23T15:05:09.357Z,gomot_a.0215.eq.wav,0,21,12334.07042541,1.96237957,True,270
102,4,1,m,77,2021-11-23T15:05:09.357Z,gomot_a.0215.eq.wav,0,22,14281.50341712,-0.09504977,True,270
102,4,1,m,77,2021-11-23T15:05:09.357Z,gomot_a.0215.eq.wav,0,23,16519.90424416,4.08462021,True,270
102,4,1,m,77,2021-11-23T15:05:09.357Z,gomot_a.0215.eq.wav,0,24,19092.74669051,1.91469002,True,270
102,4,1,m,77,2021-11-23T15:05:09.357Z,gomot_a.0215.eq.wav,0,25,22050.00000000,-3.73572134,True,270
102,4,1,m,77,2021-11-23T15:05:09.357Z,gomot_a.0007.eq.wav,1,0,0.00000000,-0.83064358,False,270
102,4,1,m,77,2021-11-23T15:05:09.357Z,gomot_a.0007.eq.wav,1,1,104.58767290,0.17927812,False,270
102,4,1,m,77,2021-11-23T15:05:09.357Z,gomot_a.0007.eq.wav,1,2,224.80189054,4.82177982,False,270
102,4,1,m,77,2021-11-23T15:05:09.357Z,gomot_a.0007.eq.wav,1,3,362.97743001,-2.97894556,False,270
102,4,1,m,77,2021-11-23T15:05:09.357Z,gomot_a.0007.eq.wav,1,4,521.79790965,2.63933577,False,270
102,4,1,m,77,2021-11-23T15:05:09.357Z,gomot_a.0007.eq.wav,1,5,704.34790983,3.73360574,False,270
102,4,1,m,77,2021-11-23T15:05:09.357Z,gomot_a.0007.eq.wav,1,6,914.17288101,-2.46278355,False,270
102,4,1,m,77,2021-11-23T15:05:09.357Z,gomot_a.0007.eq.wav,1,7,1155.34800284,4.88329897,False,270
102,4,1,m,77,2021-11-23T15:05:09.357Z,gomot_a.0007.eq.wav,1,8,1432.55733147,-1.36944959,False,270
102,4,1,m,77,2021-11-23T15:05:09.357Z,gomot_a.0007.eq.wav,1,9,1751.18477235,1.55311798,False,270
102,4,1,m,77,2021-11-23T15:05:09.357Z,gomot_a.0007.eq.wav,1,10,2117.41864548,2.90404319,False,270
102,4,1,m,77,2021-11-23T15:05:09.357Z,gomot_a.0007.eq.wav,1,11,2538.37187364,4.90856035,False,270
102,4,1,m,77,2021-11-23T15:05:09.357Z,gomot_a.0007.eq.wav,1,12,3022.22012828,1.84485169,False,270
102,4,1,m,77,2021-11-23T15:05:09.357Z,gomot_a.0007.eq.wav,1,13,3578.36061576,2.03562731,False,270
102,4,1,m,77,2021-11-23T15:05:09.357Z,gomot_a.0007.eq.wav,1,14,4217.59458808,-3.68451812,False,270
102,4,1,m,77,2021-11-23T15:05:09.357Z,gomot_a.0007.eq.wav,1,15,4952.33712269,-1.65239714,False,270
102,4,1,m,77,2021-11-23T15:05:09.357Z,gomot_a.0007.eq.wav,1,16,5796.85824570,2.56135058,False,270
102,4,1,m,77,2021-11-23T15:05:09.357Z,gomot_a.0007.eq.wav,1,17,6767.56008152,-4.19475264,False,270
102,4,1,m,77,2021-11-23T15:05:09.357Z,gomot_a.0007.eq.wav,1,18,7883.29541175,1.31216891,False,270
102,4,1,m,77,2021-11-23T15:05:09.357Z,gomot_a.0007.eq.wav,1,19,9165.73383021,-0.96922211,False,270
102,4,1,m,77,2021-11-23T15:05:09.357Z,gomot_a.0007.eq.wav,1,20,10639.78260555,3.02915438,False,270
102,4,1,m,77,2021-11-23T15:05:09.357Z,gomot_a.0007.eq.wav,1,21,12334.07042541,4.18133112,False,270
102,4,1,m,77,2021-11-23T15:05:09.357Z,gomot_a.0007.eq.wav,1,22,14281.50341712,-4.63466568,False,270
102,4,1,m,77,2021-11-23T15:05:09.357Z,gomot_a.0007.eq.wav,1,23,16519.90424416,4.99824167,False,270
102,4,1,m,77,2021-11-23T15:05:09.357Z,gomot_a.0007.eq.wav,1,24,19092.74669051,4.26485701,False,270
102,4,1,m,77,2021-11-23T15:05:09.357Z,gomot_a.0007.eq.wav,1,25,22050.00000000,1.52722673,False,270
102,5,1,m,77,2021-11-23T15:05:09.357Z,gomot_a.0120.eq.wav,0,0,0.00000000,-2.25258125,True,290
102,5,1,m,77,2021-11-23T15:05:09.357Z,gomot_a.0120.eq.wav,0,1,104.58767290,0.07588477,True,290
102,5,1,m,77,2021-11-23T15:05:09.357Z,gomot_a.0120.eq.wav,0,2,224.80189054,4.16371952,True,290
102,5,1,m,77,2021-11-23T15:05:09.357Z,gomot_a.0120.eq.wav,0,3,362.97743001,-3.07817679,True,290
102,5,1,m,77,2021-11-23T15:05:09.357Z,gomot_a.0120.eq.wav,0,4,521.79790965,0.17627809,True,290
102,5,1,m,77,2021-11-23T15:05:09.357Z,gomot_a.0120.eq.wav,0,5,704.34790983,0.05586422,True,290
102,5,1,m,77,2021-11-23T15:05:09.357Z,gomot_a.0120.eq.wav,0,6,914.17288101,-2.32030734,True,290
102,5,1,m,77,2021-11-23T15:05:09.357Z,gomot_a.0120.eq.wav,0,7,1155.34800284,3.68947238,True,290
102,5,1,m,77,2021-11-23T15:05:09.357Z,gomot_a.0120.eq.wav,0,8,1432.55733147,-3.16194170,True,290
102,5,1,m,77,2021-11-23T15:05:09.357Z,gomot_a.0120.eq.wav,0,9,1751.18477235,-1.18847784,True,290
102,5,1,m,77,2021-11-23T15:05:09.357Z,gomot_a.0120.eq.wav,0,10,2117.41864548,-3.07903392,True,290
102,5,1,m,77,2021-11-23T15:05:09.357Z,gomot_a.0120.eq.wav,0,11,2538.37187364,2.50088905,True,290
102,5,1,m,77,2021-11-23T15:05:09.357Z,gomot_a.0120.eq.wav,0,12,3022.22012828,-3.14233471,True,290
102,5,1,m,77,2021-11-23T15:05:09.357Z,gomot_a.0120.eq.wav,0,13,3578.36061576,4.95310531,True,290
102,5,1,m,77,2021-11-23T15:05:09.357Z,gomot_a.0120.eq.wav,0,14,4217.59458808,3.19692860,True,290
102,5,1,m,77,2021-11-23T15:05:09.357Z,gomot_a.0120.eq.wav,0,15,4952.33712269,-0.24405878,True,290
102,5,1,m,77,2021-11-23T15:05:09.357Z,gomot_a.0120.eq.wav,0,16,5796.85824570,-3.54485899,True,290
102,5,1,m,77,2021-11-23T15:05:09.357Z,gomot_a.0120.eq.wav,0,17,6767.56008152,2.12311398,True,290
102,5,1,m,77,2021-11-23T15:05:09.357Z,gomot_a.0120.eq.wav,0,18,7883.29541175,3.13536553,True,290
102,5,1,m,77,2021-11-23T15:05:09.357Z,gomot_a.0120.eq.wav,0,19,9165.73383021,-0.14887580,True,290
102,5,1,m,77,2021-11-23T15:05:09.357Z,gomot_a.0120.eq.wav,0,20,10639.78260555,2.31764776,True,290
102,5,1,m,77,2021-11-23T15:05:09.357Z,gomot_a.0120.eq.wav,0,21,12334.07042541,-0.05249950,True,290
102,5,1,m,77,2021-11-23T15:05:09.357Z,gomot_a.0120.eq.wav,0,22,14281.50341712,2.78932032,True,290
102,5,1,m,77,2021-11-23T15:05:09.357Z,gomot_a.0120.eq.wav,0,23,16519.90424416,0.20706955,True,290
102,5,1,m,77,2021-11-23T15:05:09.357Z,gomot_a.0120.eq.wav,0,24,19092.74669051,1.54950793,True,290
102,5,1,m,77,2021-11-23T15:05:09.357Z,gomot_a.0120.eq.wav,0,25,22050.00000000,3.29224351,True,290
102,5,1,m,77,2021-11-23T15:05:09.357Z,gomot_a.0566.eq.wav,1,0,0.00000000,-1.68893638,False,290
102,5,1,m,77,2021-11-23T15:05:09.357Z,gomot_a.0566.eq.wav,1,1,104.58767290,-0.60186812,False,290
102,5,1,m,77,2021-11-23T15:05:09.357Z,gomot_a.0566.eq.wav,1,2,224.80189054,-2.35647059,False,290
102,5,1,m,77,2021-11-23T15:05:09.357Z,gomot_a.0566.eq.wav,1,3,362.97743001,3.23737260,False,290
102,5,1,m,77,2021-11-23T15:05:09.357Z,gomot_a.0566.eq.wav,1,4,521.79790965,2.34997881,False,290
102,5,1,m,77,2021-11-23T15:05:09.357Z,gomot_a.0566.eq.wav,1,5,704.34790983,-4.86753969,False,290
102,5,1,m,77,2021-11-23T15:05:09.357Z,gomot_a.0566.eq.wav,1,6,914.17288101,-1.07665391,False,290
102,5,1,m,77,2021-11-23T15:05:09.357Z,gomot_a.0566.eq.wav,1,7,1155.34800284,3.38582832,False,290
102,5,1,m,77,2021-11-23T15:05:09.357Z,gomot_a.0566.eq.wav,1,8,1432.55733147,0.52896528,False,290
102,5,1,m,77,2021-11-23T15:05:09.357Z,gomot_a.0566.eq.wav,1,9,1751.18477235,-1.79484319,False,290
102,5,1,m,77,2021-11-23T15:05:09.357Z,gomot_a.0566.eq.wav,1,10,2117.41864548,0.20657185,False,290
102,5,1,m,77,2021-11-23T15:05:09.357Z,gomot_a.0566.eq.wav,1,11,2538.37187364,3.82861160,False,290
102,5,1,m,77,2021-11-23T15:05:09.357Z,gomot_a.0566.eq.wav,1,12,3022.22012828,0.84011914,False,290
102,5,1,m,77,2021-11-23T15:05:09.357Z,gomot_a.0566.eq.wav,1,13,3578.36061576,3.72789848,False,290
102,5,1,m,77,2021-11-23T15:05:09.357Z,gomot_a.0566.eq.wav,1,14,4217.59458808,2.38659216,False,290
102,5,1,m,77,2021-11-23T15:05:09.357Z,gomot_a.0566.eq.wav,1,15,4952.33712269,-3.04611545,False,290
102,5,1,m,77,2021-11-23T15:05:09.357Z,gomot_a.0566.eq.wav,1,16,5796.85824570,3.33972244,False,290
102,5,1,m,77,2021-11-23T15:05:09.357Z,gomot_a.0566.eq.wav,1,17,6767.56008152,-4.18045571,False,290
102,5,1,m,77,2021-11-23T15:05:09.357Z,gomot_a.0566.eq.wav,1,18,7883.29541175,-1.62008641,False,290
102,5,1,m,77,2021-11-23T15:05:09.357Z,gomot_a.0566.eq.wav,1,19,9165.73383021,3.37972501,False,290
102,5,1,m,77,2021-11-23T15:05:09.357Z,gomot_a.0566.eq.wav,1,20,10639.78260555,-3.47089329,False,290
102,5,1,m,77,2021-11-23T15:05:09.357Z,gomot_a.0566.eq.wav,1,21,12334.07042541,-1.14217343,False,290
102,5,1,m,77,2021-11-23T15:05:09.357Z,gomot_a.0566.eq.wav,1,22,14281.50341712,2.55352706,False,290
102,5,1,m,77,2021-11-23T15:05:09.357Z,gomot_a.0566.eq.wav,1,23,16519.90424416,-1.66234204,False,290
102,5,1,m,77,2021-11-23T15:05:09.357Z,gomot_a.0566.eq.wav,1,24,19092.74669051,1.83312552,False,290
102,5,1,m,77,2021-11-23T15:05:09.357Z,gomot_a.0566.eq.wav,1,25,22050.00000000,3.44209799,False,290
102,6,2,m,77,2021-11-23T15:05:09.357Z,gomot_a.0265.eq.wav,0,0,0.00000000,-2.61993700,True,375
102,6,2,m,77,2021-11-23T15:05:09.357Z,gomot_a.0265.eq.wav,0,1,104.58767290,-4.10875169,True,375
102,6,2,m,77,2021-11-23T15:05:09.357Z,gomot_a.0265.eq.wav,0,2,224.80189054,1.28811900,True,375
102,6,2,m,77,2021-11-23T15:05:09.357Z,gomot_a.0265.eq.wav,0,3,362.97743001,3.46348121,True,375
102,6,2,m,77,2021-11-23T15:05:09.357Z,gomot_a.0265.eq.wav,0,4,521.79790965,1.94642030,True,375
102,6,2,m,77,2021-11-23T15:05:09.357Z,gomot_a.0265.eq.wav,0,5,704.34790983,0.01405983,True,375
102,6,2,m,77,2021-11-23T15:05:09.357Z,gomot_a.0265.eq.wav,0,6,914.17288101,3.85663435,True,375
102,6,2,m,77,2021-11-23T15:05:09.357Z,gomot_a.0265.eq.wav,0,7,1155.34800284,2.89728769,True,375
102,6,2,m,77,2021-11-23T15:05:09.357Z,gomot_a.0265.eq.wav,0,8,1432.55733147,-1.49254399,True,375
102,6,2,m,77,2021-11-23T15:05:09.357Z,gomot_a.0265.eq.wav,0,9,1751.18477235,0.43284338,True,375
102,6,2,m,77,2021-11-23T15:05:09.357Z,gomot_a.0265.eq.wav,0,10,2117.41864548,-4.53840369,True,375
102,6,2,m,77,2021-11-23T15:05:09.357Z,gomot_a.0265.eq.wav,0,11,2538.37187364,3.80678059,True,375
102,6,2,m,77,2021-11-23T15:05:09.357Z,gomot_a.0265.eq.wav,0,12,3022.22012828,1.82710167,True,375
102,6,2,m,77,2021-11-23T15:05:09.357Z,gomot_a.0265.eq.wav,0,13,3578.36061576,0.63080605,True,375
102,6,2,m,77,2021-11-23T15:05:09.357Z,gomot_a.0265.eq.wav,0,14,4217.59458808,0.09991646,True,375
102,6,2,m,77,2021-11-23T15:05:09.357Z,gomot_a.0265.eq.wav,0,15,4952.33712269,0.76428664,True,375
102,6,2,m,77,2021-11-23T15:05:09.357Z,gomot_a.0265.eq.wav,0,16,5796.85824570,0.52111033,True,375
102,6,2,m,77,2021-11-23T15:05:09.357Z,gomot_a.0265.eq.wav,0,17,6767.56008152,0.48977197,True,375
102,6,2,m,77,2021-11-23T15:05:09.357Z,gomot_a.0265.eq.wav,0,18,7883.29541175,-4.19439828,True,375
102,6,2,m,77,2021-11-23T15:05:09.357Z,gomot_a.0265.eq.wav,0,19,9165.73383021,-4.40231767,True,375
102,6,2,m,77,2021-11-23T15:05:09.357Z,gomot_a.0265.eq.wav,0,20,10639.78260555,-4.90206643,True,375
102,6,2,m,77,2021-11-23T15:05:09.357Z,gomot_a.0265.eq.wav,0,21,12334.07042541,-4.56666719,True,375
102,6,2,m,77,2021-11-23T15:05:09.357Z,gomot_a.0265.eq.wav,0,22,14281.50341712,0.25295881,True,375
102,6,2,m,77,2021-11-23T15:05:09.357Z,gomot_a.0265.eq.wav,0,23,16519.90424416,-1.06007497,True,375
102,6,2,m,77,2021-11-23T15:05:09.357Z,gomot_a.0265.eq.wav,0,24,19092.74669051,-0.00763936,True,375
102,6,2,m,77,2021-11-23T15:05:09.357Z,gomot_a.0265.eq.wav,0,25,22050.00000000,4.92627720,True,375
102,6,2,m,77,2021-11-23T15:05:09.357Z,gomot_a.0404.eq.wav,1,0,0.00000000,3.77621437,False,375
102,6,2,m,77,2021-11-23T15:05:09.357Z,gomot_a.0404.eq.wav,1,1,104.58767290,-1.66713116,False,375
102,6,2,m,77,2021-11-23T15:05:09.357Z,gomot_a.0404.eq.wav,1,2,224.80189054,-4.05023457,False,375
102,6,2,m,77,2021-11-23T15:05:09.357Z,gomot_a.0404.eq.wav,1,3,362.97743001,-0.50930636,False,375
102,6,2,m,77,2021-11-23T15:05:09.357Z,gomot_a.0404.eq.wav,1,4,521.79790965,4.65162251,False,375
102,6,2,m,77,2021-11-23T15:05:09.357Z,gomot_a.0404.eq.wav,1,5,704.34790983,-1.64803925,False,375
102,6,2,m,77,2021-11-23T15:05:09.357Z,gomot_a.0404.eq.wav,1,6,914.17288101,0.67073976,False,375
102,6,2,m,77,2021-11-23T15:05:09.357Z,gomot_a.0404.eq.wav,1,7,1155.34800284,-0.73817934,False,375
102,6,2,m,77,2021-11-23T15:05:09.357Z,gomot_a.0404.eq.wav,1,8,1432.55733147,1.55491003,False,375
102,6,2,m,77,2021-11-23T15:05:09.357Z,gomot_a.0404.eq.wav,1,9,1751.18477235,-2.16189290,False,375
102,6,2,m,77,2021-11-23T15:05:09.357Z,gomot_a.0404.eq.wav,1,10,2117.41864548,-4.68994604,False,375
102,6,2,m,77,2021-11-23T15:05:09.357Z,gomot_a.0404.eq.wav,1,11,2538.37187364,-0.53543846,False,375
102,6,2,m,77,2021-11-23T15:05:09.357Z,gomot_a.0404.eq.wav,1,12,3022.22012828,1.09748860,False,375
102,6,2,m,77,2021-11-23T15:05:09.357Z,gomot_a.0404.eq.wav,1,13,3578.36061576,1.82791150,False,375
102,6,2,m,77,2021-11-23T15:05:09.357Z,gomot_a.0404.eq.wav,1,14,4217.59458808,1.38961790,False,375
102,6,2,m,77,2021-11-23T15:05:09.357Z,gomot_a.0404.eq.wav,1,15,4952.33712269,-0.56000266,False,375
102,6,2,m,77,2021-11-23T15:05:09.357Z,gomot_a.0404.eq.wav,1,16,5796.85824570,0.07707368,False,375
102,6,2,m,77,2021-11-23T15:05:09.357Z,gomot_a.0404.eq.wav,1,17,6767.56008152,1.43781751,False,375
102,6,2,m,77,2021-11-23T15:05:09.357Z,gomot_a.0404.eq.wav,1,18,7883.29541175,-2.70518722,False,375
102,6,2,m,77,2021-11-23T15:05:09.357Z,gomot_a.0404.eq.wav,1,19,9165.73383021,1.05261764,False,375
102,6,2,m,77,2021-11-23T15:05:09.357Z,gomot_a.0404.eq.wav,1,20,10639.78260555,2.54576576,False,375
102,6,2,m,77,2021-11-23T15:05:09.357Z,gomot_a.0404.eq.wav,1,21,12334.07042541,-4.04668031,False,375
102,6,2,m,77,2021-11-23T15:05:09.357Z,gomot_a.0404.eq.wav,1,22,14281.50341712,-2.28560626,False,375
102,6,2,m,77,2021-11-23T15:05:09.357Z,gomot_a.0404.eq.wav,1,23,16519.90424416,3.16979537,False,375
102,6,2,m,77,2021-11-23T15:05:09.357Z,gomot_a.0404.eq.wav,1,24,19092.74669051,0.06836159,False,375
102,6,2,m,77,2021-11-23T15:05:09.357Z,gomot_a.0404.eq.wav,1,25,22050.00000000,0.68599708,False,375
102,7,2,m,77,2021-11-23T15:05:09.357Z,gomot_a.0193.eq.wav,0,0,0.00000000,-0.35312071,False,266
102,7,2,m,77,2021-11-23T15:05:09.357Z,gomot_a.0193.eq.wav,0,1,104.58767290,0.60875522,False,266
102,7,2,m,77,2021-11-23T15:05:09.357Z,gomot_a.0193.eq.wav,0,2,224.80189054,3.08742028,False,266
102,7,2,m,77,2021-11-23T15:05:09.357Z,gomot_a.0193.eq.wav,0,3,362.97743001,1.55681451,False,266
102,7,2,m,77,2021-11-23T15:05:09.357Z,gomot_a.0193.eq.wav,0,4,521.79790965,4.92579419,False,266
102,7,2,m,77,2021-11-23T15:05:09.357Z,gomot_a.0193.eq.wav,0,5,704.34790983,-2.82476075,False,266
102,7,2,m,77,2021-11-23T15:05:09.357Z,gomot_a.0193.eq.wav,0,6,914.17288101,-2.13013526,False,266
102,7,2,m,77,2021-11-23T15:05:09.357Z,gomot_a.0193.eq.wav,0,7,1155.34800284,4.35726926,False,266
102,7,2,m,77,2021-11-23T15:05:09.357Z,gomot_a.0193.eq.wav,0,8,1432.55733147,-0.30243654,False,266
102,7,2,m,77,2021-11-23T15:05:09.357Z,gomot_a.0193.eq.wav,0,9,1751.18477235,3.07301060,False,266
102,7,2,m,77,2021-11-23T15:05:09.357Z,gomot_a.0193.eq.wav,0,10,2117.41864548,4.63723397,False,266
102,7,2,m,77,2021-11-23T15:05:09.357Z,gomot_a.0193.eq.wav,0,11,2538.37187364,-3.73849027,False,266
102,7,2,m,77,2021-11-23T15:05:09.357Z,gomot_a.0193.eq.wav,0,12,3022.22012828,-0.57404964,False,266
102,7,2,m,77,2021-11-23T15:05:09.357Z,gomot_a.0193.eq.wav,0,13,3578.36061576,-2.89320541,False,266
102,7,2,m,77,2021-11-23T15:05:09.357Z,gomot_a.0193.eq.wav,0,14,4217.59458808,0.41176930,False,266
102,7,2,m,77,2021-11-23T15:05:09.357Z,gomot_a.0193.eq.wav,0,15,4952.33712269,-1.75986109,False,266
102,7,2,m,77,2021-11-23T15:05:09.357Z,gomot_a.0193.eq.wav,0,16,5796.85824570,-4.36121651,False,266
102,7,2,m,77,2021-11-23T15:05:09.357Z,gomot_a.0193.eq.wav,0,17,6767.56008152,-1.72839574,False,266
102,7,2,m,77,2021-11-23T15:05:09.357Z,gomot_a.0193.eq.wav,0,18,7883.29541175,-1.59630099,False,266
102,7,2,m,77,2021-11-23T15:05:09.357Z,gomot_a.0193.eq.wav,0,19,9165.73383021,-2.08003950,False,266
102,7,2,m,77,2021-11-23T15:05:09.357Z,gomot_a.0193.eq.wav,0,20,10639.78260555,-4.50462731,False,266
102,7,2,m,77,2021-11-23T15:05:09.357Z,gomot_a.0193.eq.wav,0,21,12334.07042541,-0.98634454,False,266
102,7,2,m,77,2021-11-23T15:05:09.357Z,gomot_a.0193.eq.wav,0,22,14281.50341712,-4.48126156,False,266
102,7,2,m,77,2021-11-23T15:05:09.357Z,gomot_a.0193.eq.wav,0,23,16519.90424416,-0.34316336,False,266
102,7,2,m,77,2021-11-23T15:05:09.357Z,gomot_a.0193.eq.wav,0,24,19092.74669051,-4.46168711,False,266
102,7,2,m,77,2021-11-23T15:05:09.357Z,gomot_a.0193.eq.wav,0,25,22050.00000000,-2.23595441,False,266
102,7,2,m,77,2021-11-23T15:05:09.357Z,gomot_a.0086.eq.wav,1,0,0.00000000,0.58333979,True,266
102,7,2,m,77,2021-11-23T15:05:09.357Z,gomot_a.0086.eq.wav,1,1,104.58767290,-1.52320067,True,266
102,7,2,m,77,2021-11-23T15:05:09.357Z,gomot_a.0086.eq.wav,1,2,224.80189054,-0.32638084,True,266
102,7,2,m,77,2021-11-23T15:05:09.357Z,gomot_a.0086.eq.wav,1,3,362.97743001,3.30016541,True,266
102,7,2,m,77,2021-11-23T15:05:09.357Z,gomot_a.0086.eq.wav,1,4,521.79790965,-2.97613952,True,266
102,7,2,m,77,2021-11-23T15:05:09.357Z,gomot_a.0086.eq.wav,1,5,704.34790983,-2.21261089,True,266
102,7,2,m,77,2021-11-23T15:05:09.357Z,gomot_a.0086.eq.wav,1,6,914.17288101,-3.27074200,True,266
102,7,2,m,77,2021-11-23T15:05:09.357Z,gomot_a.0086.eq.wav,1,7,1155.34800284,-3.50496577,True,266
102,7,2,m,77,2021-11-23T15:05:09.357Z,gomot_a.0086.eq.wav,1,8,1432.55733147,-2.39432099,True,266
102,7,2,m,77,2021-11-23T15:05:09.357Z,gomot_a.0086.eq.wav,1,9,1751.18477235,3.09592098,True,266
102,7,2,m,77,2021-11-23T15:05:09.357Z,gomot_a.0086.eq.wav,1,10,2117.41864548,-1.57286781,True,266
102,7,2,m,77,2021-11-23T15:05:09.357Z,gomot_a.0086.eq.wav,1,11,2538.37187364,4.22608362,True,266
102,7,2,m,77,2021-11-23T15:05:09.357Z,gomot_a.0086.eq.wav,1,12,3022.22012828,3.66312044,True,266
102,7,2,m,77,2021-11-23T15:05:09.357Z,gomot_a.0086.eq.wav,1,13,3578.36061576,-3.02933103,True,266
102,7,2,m,77,2021-11-23T15:05:09.357Z,gomot_a.0086.eq.wav,1,14,4217.59458808,0.24629614,True,266
102,7,2,m,77,2021-11-23T15:05:09.357Z,gomot_a.0086.eq.wav,1,15,4952.33712269,1.25958760,True,266
102,7,2,m,77,2021-11-23T15:05:09.357Z,gomot_a.0086.eq.wav,1,16,5796.85824570,4.59909304,True,266
102,7,2,m,77,2021-11-23T15:05:09.357Z,gomot_a.0086.eq.wav,1,17,6767.56008152,4.20038222,True,266
102,7,2,m,77,2021-11-23T15:05:09.357Z,gomot_a.0086.eq.wav,1,18,7883.29541175,2.22246272,True,266
102,7,2,m,77,2021-11-23T15:05:09.357Z,gomot_a.0086.eq.wav,1,19,9165.73383021,4.19972776,True,266
102,7,2,m,77,2021-11-23T15:05:09.357Z,gomot_a.0086.eq.wav,1,20,10639.78260555,2.54320294,True,266
102,7,2,m,77,2021-11-23T15:05:09.357Z,gomot_a.0086.eq.wav,1,21,12334.07042541,3.13562722,True,266
102,7,2,m,77,2021-11-23T15:05:09.357Z,gomot_a.0086.eq.wav,1,22,14281.50341712,4.04567475,True,266
102,7,2,m,77,2021-11-23T15:05:09.357Z,gomot_a.0086.eq.wav,1,23,16519.90424416,1.40760718,True,266
102,7,2,m,77,2021-11-23T15:05:09.357Z,gomot_a.0086.eq.wav,1,24,19092.74669051,-1.90462628,True,266
102,7,2,m,77,2021-11-23T15:05:09.357Z,gomot_a.0086.eq.wav,1,25,22050.00000000,-3.36732780,True,266
102,8,2,m,77,2021-11-23T15:05:09.357Z,gomot_a.0139.eq.wav,0,0,0.00000000,-3.87516458,False,42
102,8,2,m,77,2021-11-23T15:05:09.357Z,gomot_a.0139.eq.wav,0,1,104.58767290,-0.71481323,False,42
102,8,2,m,77,2021-11-23T15:05:09.357Z,gomot_a.0139.eq.wav,0,2,224.80189054,-2.10390392,False,42
102,8,2,m,77,2021-11-23T15:05:09.357Z,gomot_a.0139.eq.wav,0,3,362.97743001,-2.89489641,False,42
102,8,2,m,77,2021-11-23T15:05:09.357Z,gomot_a.0139.eq.wav,0,4,521.79790965,1.17153042,False,42
102,8,2,m,77,2021-11-23T15:05:09.357Z,gomot_a.0139.eq.wav,0,5,704.34790983,-1.85329454,False,42
102,8,2,m,77,2021-11-23T15:05:09.357Z,gomot_a.0139.eq.wav,0,6,914.17288101,1.30766412,False,42
102,8,2,m,77,2021-11-23T15:05:09.357Z,gomot_a.0139.eq.wav,0,7,1155.34800284,-3.43521953,False,42
102,8,2,m,77,2021-11-23T15:05:09.357Z,gomot_a.0139.eq.wav,0,8,1432.55733147,-1.23655624,False,42
102,8,2,m,77,2021-11-23T15:05:09.357Z,gomot_a.0139.eq.wav,0,9,1751.18477235,-1.92036509,False,42
102,8,2,m,77,2021-11-23T15:05:09.357Z,gomot_a.0139.eq.wav,0,10,2117.41864548,2.96124208,False,42
102,8,2,m,77,2021-11-23T15:05:09.357Z,gomot_a.0139.eq.wav,0,11,2538.37187364,3.42684658,False,42
102,8,2,m,77,2021-11-23T15:05:09.357Z,gomot_a.0139.eq.wav,0,12,3022.22012828,-0.91423989,False,42
102,8,2,m,77,2021-11-23T15:05:09.357Z,gomot_a.0139.eq.wav,0,13,3578.36061576,-0.55802824,False,42
102,8,2,m,77,2021-11-23T15:05:09.357Z,gomot_a.0139.eq.wav,0,14,4217.59458808,-0.09981478,False,42
102,8,2,m,77,2021-11-23T15:05:09.357Z,gomot_a.0139.eq.wav,0,15,4952.33712269,-2.10161899,False,42
102,8,2,m,77,2021-11-23T15:05:09.357Z,gomot_a.0139.eq.wav,0,16,5796.85824570,3.47403996,False,42
102,8,2,m,77,2021-11-23T15:05:09.357Z,gomot_a.0139.eq.wav,0,17,6767.56008152,-0.54651540,False,42
102,8,2,m,77,2021-11-23T15:05:09.357Z,gomot_a.0139.eq.wav,0,18,7883.29541175,3.58869475,False,42
102,8,2,m,77,2021-11-23T15:05:09.357Z,gomot_a.0139.eq.wav,0,19,9165.73383021,-3.25280276,False,42
102,8,2,m,77,2021-11-23T15:05:09.357Z,gomot_a.0139.eq.wav,0,20,10639.78260555,1.21980567,False,42
102,8,2,m,77,2021-11-23T15:05:09.357Z,gomot_a.0139.eq.wav,0,21,12334.07042541,-2.51675899,False,42
102,8,2,m,77,2021-11-23T15:05:09.357Z,gomot_a.0139.eq.wav,0,22,14281.50341712,3.95951415,False,42
102,8,2,m,77,2021-11-23T15:05:09.357Z,gomot_a.0139.eq.wav,0,23,16519.90424416,-1.45589490,False,42
102,8,2,m,77,2021-11-23T15:05:09.357Z,gomot_a.0139.eq.wav,0,24,19092.74669051,-4.73891029,False,42
102,8,2,m,77,2021-11-23T15:05:09.357Z,gomot_a.0139.eq.wav,0,25,22050.00000000,-2.66840640,False,42
102,8,2,m,77,2021-11-23T15:05:09.357Z,gomot_a.0364.eq.wav,1,0,0.00000000,4.81489572,True,42
102,8,2,m,77,2021-11-23T15:05:09.357Z,gomot_a.0364.eq.wav,1,1,104.58767290,-0.25931202,True,42
102,8,2,m,77,2021-11-23T15:05:09.357Z,gomot_a.0364.eq.wav,1,2,224.80189054,-4.76604711,True,42
102,8,2,m,77,2021-11-23T15:05:09.357Z,gomot_a.0364.eq.wav,1,3,362.97743001,2.00542304,True,42
102,8,2,m,77,2021-11-23T15:05:09.357Z,gomot_a.0364.eq.wav,1,4,521.79790965,-2.96953072,True,42
102,8,2,m,77,2021-11-23T15:05:09.357Z,gomot_a.0364.eq.wav,1,5,704.34790983,-0.09730447,True,42
102,8,2,m,77,2021-11-23T15:05:09.357Z,gomot_a.0364.eq.wav,1,6,914.17288101,1.50125143,True,42
102,8,2,m,77,2021-11-23T15:05:09.357Z,gomot_a.0364.eq.wav,1,7,1155.34800284,-4.06733684,True,42
102,8,2,m,77,2021-11-23T15:05:09.357Z,gomot_a.0364.eq.wav,1,8,1432.55733147,-4.98693272,True,42
102,8,2,m,77,2021-11-23T15:05:09.357Z,gomot_a.0364.eq.wav,1,9,1751.18477235,-1.34338134,True,42
102,8,2,m,77,2021-11-23T15:05:09.357Z,gomot_a.0364.eq.wav,1,10,2117.41864548,0.16928043,True,42
102,8,2,m,77,2021-11-23T15:05:09.357Z,gomot_a.0364.eq.wav,1,11,2538.37187364,-2.35841449,True,42
102,8,2,m,77,2021-11-23T15:05:09.357Z,gomot_a.0364.eq.wav,1,12,3022.22012828,2.17499114,True,42
102,8,2,m,77,2021-11-23T15:05:09.357Z,gomot_a.0364.eq.wav,1,13,3578.36061576,-3.49481336,True,42
102,8,2,m,77,2021-11-23T15:05:09.357Z,gomot_a.0364.eq.wav,1,14,4217.59458808,-0.90550756,True,42
102,8,2,m,77,2021-11-23T15:05:09.357Z,gomot_a.0364.eq.wav,1,15,4952.33712269,3.72983953,True,42
102,8,2,m,77,2021-11-23T15:05:09.357Z,gomot_a.0364.eq.wav,1,16,5796.85824570,3.39936963,True,42
102,8,2,m,77,2021-11-23T15:05:09.357Z,gomot_a.0364.eq.wav,1,17,6767.56008152,-0.44083519,True,42
102,8,2,m,77,2021-11-23T15:05:09.357Z,gomot_a.0364.eq.wav,1,18,7883.29541175,4.00437313,True,42
102,8,2,m,77,2021-11-23T15:05:09.357Z,gomot_a.0364.eq.wav,1,19,9165.73383021,4.46013541,True,42
102,8,2,m,77,2021-11-23T15:05:09.357Z,gomot_a.0364.eq.wav,1,20,10639.78260555,0.98602052,True,42
102,8,2,m,77,2021-11-23T15:05:09.357Z,gomot_a.0364.eq.wav,1,21,12334.07042541,1.63263681,True,42
102,8,2,m,77,2021-11-23T15:05:09.357Z,gomot_a.0364.eq.wav,1,22,14281.50341712,2.46750197,True,42
102,8,2,m,77,2021-11-23T15:05:09.357Z,gomot_a.0364.eq.wav,1,23,16519.90424416,-0.88842473,True,42
102,8,2,m,77,2021-11-23T15:05:09.357Z,gomot_a.0364.eq.wav,1,24,19092.74669051,-0.60860484,True,42
102,8,2,m,77,2021-11-23T15:05:09.357Z,gomot_a.0364.eq.wav,1,25,22050.00000000,0.72856831,True,42
102,9,3,m,77,2021-11-23T15:05:09.357Z,gomot_a.0377.eq.wav,0,0,0.00000000,-4.70765948,True,906
102,9,3,m,77,2021-11-23T15:05:09.357Z,gomot_a.0377.eq.wav,0,1,104.58767290,2.89796639,True,906
102,9,3,m,77,2021-11-23T15:05:09.357Z,gomot_a.0377.eq.wav,0,2,224.80189054,-0.12275107,True,906
102,9,3,m,77,2021-11-23T15:05:09.357Z,gomot_a.0377.eq.wav,0,3,362.97743001,0.31588727,True,906
102,9,3,m,77,2021-11-23T15:05:09.357Z,gomot_a.0377.eq.wav,0,4,521.79790965,4.30478583,True,906
102,9,3,m,77,2021-11-23T15:05:09.357Z,gomot_a.0377.eq.wav,0,5,704.34790983,1.71736454,True,906
102,9,3,m,77,2021-11-23T15:05:09.357Z,gomot_a.0377.eq.wav,0,6,914.17288101,-2.80942828,True,906
102,9,3,m,77,2021-11-23T15:05:09.357Z,gomot_a.0377.eq.wav,0,7,1155.34800284,-3.29826792,True,906
102,9,3,m,77,2021-11-23T15:05:09.357Z,gomot_a.0377.eq.wav,0,8,1432.55733147,-2.19873026,True,906
102,9,3,m,77,2021-11-23T15:05:09.357Z,gomot_a.0377.eq.wav,0,9,1751.18477235,0.49239352,True,906
102,9,3,m,77,2021-11-23T15:05:09.357Z,gomot_a.0377.eq.wav,0,10,2117.41864548,-2.02951936,True,906
102,9,3,m,77,2021-11-23T15:05:09.357Z,gomot_a.0377.eq.wav,0,11,2538.37187364,0.16481504,True,906
102,9,3,m,77,2021-11-23T15:05:09.357Z,gomot_a.0377.eq.wav,0,12,3022.22012828,-2.61387143,True,906
102,9,3,m,77,2021-11-23T15:05:09.357Z,gomot_a.0377.eq.wav,0,13,3578.36061576,0.28918804,True,906
102,9,3,m,77,2021-11-23T15:05:09.357Z,gomot_a.0377.eq.wav,0,14,4217.59458808,1.34280552,True,906
102,9,3,m,77,2021-11-23T15:05:09.357Z,gomot_a.0377.eq.wav,0,15,4952.33712269,0.97183527,True,906
102,9,3,m,77,2021-11-23T15:05:09.357Z,gomot_a.0377.eq.wav,0,16,5796.85824570,1.89029996,True,906
102,9,3,m,77,2021-11-23T15:05:09.357Z,gomot_a.0377.eq.wav,0,17,6767.56008152,2.26273150,True,906
102,9,3,m,77,2021-11-23T15:05:09.357Z,gomot_a.0377.eq.wav,0,18,7883.29541175,-3.18803340,True,906
102,9,3,m,77,2021-11-23T15:05:09.357Z,gomot_a.0377.eq.wav,0,19,9165.73383021,-3.91392594,True,906
102,9,3,m,77,2021-11-23T15:05:09.357Z,gomot_a.0377.eq.wav,0,20,10639.78260555,-1.42657706,True,906
102,9,3,m,77,2021-11-23T15:05:09.357Z,gomot_a.0377.eq.wav,0,21,12334.07042541,-0.60226118,True,906
102,9,3,m,77,2021-11-23T15:05:09.357Z,gomot_a.0377.eq.wav,0,22,14281.50341712,-0.38875419,True,906
102,9,3,m,77,2021-11-23T15:05:09.357Z,gomot_a.0377.eq.wav,0,23,16519.90424416,2.54510011,True,906
102,9,3,m,77,2021-11-23T15:05:09.357Z,gomot_a.0377.eq.wav,0,24,19092.74669051,1.73533573,True,906
102,9,3,m,77,2021-11-23T15:05:09.357Z,gomot_a.0377.eq.wav,0,25,22050.00000000,-3.57861006,True,906
102,9,3,m,77,2021-11-23T15:05:09.357Z,gomot_a.0562.eq.wav,1,0,0.00000000,3.20612094,False,906
102,9,3,m,77,2021-11-23T15:05:09.357Z,gomot_a.0562.eq.wav,1,1,104.58767290,1.28121831,False,906
102,9,3,m,77,2021-11-23T15:05:09.357Z,gomot_a.0562.eq.wav,1,2,224.80189054,0.72799574,False,906
102,9,3,m,77,2021-11-23T15:05:09.357Z,gomot_a.0562.eq.wav,1,3,362.97743001,-1.70244880,False,906
102,9,3,m,77,2021-11-23T15:05:09.357Z,gomot_a.0562.eq.wav,1,4,521.79790965,-0.49566668,False,906
102,9,3,m,77,2021-11-23T15:05:09.357Z,gomot_a.0562.eq.wav,1,5,704.34790983,4.07921689,False,906
102,9,3,m,77,2021-11-23T15:05:09.357Z,gomot_a.0562.eq.wav,1,6,914.17288101,-0.33427183,False,906
102,9,3,m,77,2021-11-23T15:05:09.357Z,gomot_a.0562.eq.wav,1,7,1155.34800284,1.32994706,False,906
102,9,3,m,77,2021-11-23T15:05:09.357Z,gomot_a.0562.eq.wav,1,8,1432.55733147,2.65911833,False,906
102,9,3,m,77,2021-11-23T15:05:09.357Z,gomot_a.0562.eq.wav,1,9,1751.18477235,-4.36060963,False,906
102,9,3,m,77,2021-11-23T15:05:09.357Z,gomot_a.0562.eq.wav,1,10,2117.41864548,0.11479704,False,906
102,9,3,m,77,2021-11-23T15:05:09.357Z,gomot_a.0562.eq.wav,1,11,2538.37187364,-4.95041325,False,906
102,9,3,m,77,2021-11-23T15:05:09.357Z,gomot_a.0562.eq.wav,1,12,3022.22012828,-1.02501443,False,906
102,9,3,m,77,2021-11-23T15:05:09.357Z,gomot_a.0562.eq.wav,1,13,3578.36061576,-3.58548504,False,906
102,9,3,m,77,2021-11-23T15:05:09.357Z,gomot_a.0562.eq.wav,1,14,4217.59458808,-4.45694967,False,906
102,9,3,m,77,2021-11-23T15:05:09.357Z,gomot_a.0562.eq.wav,1,15,4952.33712269,-1.18335310,False,906
102,9,3,m,77,2021-11-23T15:05:09.357Z,gomot_a.0562.eq.wav,1,16,5796.85824570,-3.72014816,False,906
102,9,3,m,77,2021-11-23T15:05:09.357Z,gomot_a.0562.eq.wav,1,17,6767.56008152,1.79872310,False,906
102,9,3,m,77,2021-11-23T15:05:09.357Z,gomot_a.0562.eq.wav,1,18,7883.29541175,1.11085616,False,906
102,9,3,m,77,2021-11-23T15:05:09.357Z,gomot_a.0562.eq.wav,1,19,9165.73383021,0.06682751,False,906
102,9,3,m,77,2021-11-23T15:05:09.357Z,gomot_a.0562.eq.wav,1,20,10639.78260555,1.86145852,False,906
102,9,3,m,77,2021-11-23T15:05:09.357Z,gomot_a.0562.eq.wav,1,21,12334.07042541,-0.39088607,False,906
102,9,3,m,77,2021-11-23T15:05:09.357Z,gomot_a.0562.eq.wav,1,22,14281.50341712,-3.63744336,False,906
102,9,3,m,77,2021-11-23T15:05:09.357Z,gomot_a.0562.eq.wav,1,23,16519.90424416,1.31893946,False,906
102,9,3,m,77,2021-11-23T15:05:09.357Z,gomot_a.0562.eq.wav,1,24,19092.74669051,1.92508458,False,906
102,9,3,m,77,2021-11-23T15:05:09.357Z,gomot_a.0562.eq.wav,1,25,22050.00000000,4.31409714,False,906
102,10,3,m,77,2021-11-23T15:05:09.357Z,gomot_a.0271.eq.wav,0,0,0.00000000,-0.27670432,True,266
102,10,3,m,77,2021-11-23T15:05:09.357Z,gomot_a.0271.eq.wav,0,1,104.58767290,-0.65340069,True,266
102,10,3,m,77,2021-11-23T15:05:09.357Z,gomot_a.0271.eq.wav,0,2,224.80189054,0.57054955,True,266
102,10,3,m,77,2021-11-23T15:05:09.357Z,gomot_a.0271.eq.wav,0,3,362.97743001,-0.58981451,True,266
102,10,3,m,77,2021-11-23T15:05:09.357Z,gomot_a.0271.eq.wav,0,4,521.79790965,2.03598180,True,266
102,10,3,m,77,2021-11-23T15:05:09.357Z,gomot_a.0271.eq.wav,0,5,704.34790983,-0.02969776,True,266
102,10,3,m,77,2021-11-23T15:05:09.357Z,gomot_a.0271.eq.wav,0,6,914.17288101,1.88369887,True,266
102,10,3,m,77,2021-11-23T15:05:09.357Z,gomot_a.0271.eq.wav,0,7,1155.34800284,-0.34704049,True,266
102,10,3,m,77,2021-11-23T15:05:09.357Z,gomot_a.0271.eq.wav,0,8,1432.55733147,3.31893515,True,266
102,10,3,m,77,2021-11-23T15:05:09.357Z,gomot_a.0271.eq.wav,0,9,1751.18477235,3.53962412,True,266
102,10,3,m,77,2021-11-23T15:05:09.357Z,gomot_a.0271.eq.wav,0,10,2117.41864548,-2.32321619,True,266
102,10,3,m,77,2021-11-23T15:05:09.357Z,gomot_a.0271.eq.wav,0,11,2538.37187364,0.93917925,True,266
102,10,3,m,77,2021-11-23T15:05:09.357Z,gomot_a.0271.eq.wav,0,12,3022.22012828,1.06504166,True,266
102,10,3,m,77,2021-11-23T15:05:09.357Z,gomot_a.0271.eq.wav,0,13,3578.36061576,2.02276507,True,266
102,10,3,m,77,2021-11-23T15:05:09.357Z,gomot_a.0271.eq.wav,0,14,4217.59458808,-1.79364876,True,266
102,10,3,m,77,2021-11-23T15:05:09.357Z,gomot_a.0271.eq.wav,0,15,4952.33712269,1.88169711,True,266
102,10,3,m,77,2021-11-23T15:05:09.357Z,gomot_a.0271.eq.wav,0,16,5796.85824570,2.82016265,True,266
102,10,3,m,77,2021-11-23T15:05:09.357Z,gomot_a.0271.eq.wav,0,17,6767.56008152,-4.78074993,True,266
102,10,3,m,77,2021-11-23T15:05:09.357Z,gomot_a.0271.eq.wav,0,18,7883.29541175,2.47751337,True,266
102,10,3,m,77,2021-11-23T15:05:09.357Z,gomot_a.0271.eq.wav,0,19,9165.73383021,-2.83379218,True,266
102,10,3,m,77,2021-11-23T15:05:09.357Z,gomot_a.0271.eq.wav,0,20,10639.78260555,1.64124799,True,266
102,10,3,m,77,2021-11-23T15:05:09.357Z,gomot_a.0271.eq.wav,0,21,12334.07042541,-2.15793825,True,266
102,10,3,m,77,2021-11-23T15:05:09.357Z,gomot_a.0271.eq.wav,0,22,14281.50341712,2.43164683,True,266
102,10,3,m,77,2021-11-23T15:05:09.357Z,gomot_a.0271.eq.wav,0,23,16519.90424416,-0.11997867,True,266
102,10,3,m,77,2021-11-23T15:05:09.357Z,gomot_a.0271.eq.wav,0,24,19092.74669051,-3.95902331,True,266
102,10,3,m,77,2021-11-23T15:05:09.357Z,gomot_a.0271.eq.wav,0,25,22050.00000000,-0.94072202,True,266
102,10,3,m,77,2021-11-23T15:05:09.357Z,gomot_a.0338.eq.wav,1,0,0.00000000,-3.95748785,False,266
102,10,3,m,77,2021-11-23T15:05:09.357Z,gomot_a.0338.eq.wav,1,1,104.58767290,-0.92656224,False,266
102,10,3,m,77,2021-11-23T15:05:09.357Z,gomot_a.0338.eq.wav,1,2,224.80189054,1.58953102,False,266
102,10,3,m,77,2021-11-23T15:05:09.357Z,gomot_a.0338.eq.wav,1,3,362.97743001,2.27799272,False,266
102,10,3,m,77,2021-11-23T15:05:09.357Z,gomot_a.0338.eq.wav,1,4,521.79790965,-4.06764236,False,266
102,10,3,m,77,2021-11-23T15:05:09.357Z,gomot_a.0338.eq.wav,1,5,704.34790983,0.08919370,False,266
102,10,3,m,77,2021-11-23T15:05:09.357Z,gomot_a.0338.eq.wav,1,6,914.17288101,2.34884332,False,266
102,10,3,m,77,2021-11-23T15:05:09.357Z,gomot_a.0338.eq.wav,1,7,1155.34800284,-3.29797654,False,266
102,10,3,m,77,2021-11-23T15:05:09.357Z,gomot_a.0338.eq.wav,1,8,1432.55733147,-4.32269917,False,266
102,10,3,m,77,2021-11-23T15:05:09.357Z,gomot_a.0338.eq.wav,1,9,1751.18477235,0.89028039,False,266
102,10,3,m,77,2021-11-23T15:05:09.357Z,gomot_a.0338.eq.wav,1,10,2117.41864548,-1.74597838,False,266
102,10,3,m,77,2021-11-23T15:05:09.357Z,gomot_a.0338.eq.wav,1,11,2538.37187364,2.29239349,False,266
102,10,3,m,77,2021-11-23T15:05:09.357Z,gomot_a.0338.eq.wav,1,12,3022.22012828,1.82100351,False,266
102,10,3,m,77,2021-11-23T15:05:09.357Z,gomot_a.0338.eq.wav,1,13,3578.36061576,-1.65993730,False,266
102,10,3,m,77,2021-11-23T15:05:09.357Z,gomot_a.0338.eq.wav,1,14,4217.59458808,-2.28013021,False,266
102,10,3,m,77,2021-11-23T15:05:09.357Z,gomot_a.0338.eq.wav,1,15,4952.33712269,2.23001406,False,266
102,10,3,m,77,2021-11-23T15:05:09.357Z,gomot_a.0338.eq.wav,1,16,5796.85824570,3.74736529,False,266
102,10,3,m,77,2021-11-23T15:05:09.357Z,gomot_a.0338.eq.wav,1,17,6767.56008152,-0.42176321,False,266
102,10,3,m,77,2021-11-23T15:05:09.357Z,gomot_a.0338.eq.wav,1,18,7883.29541175,-0.77120690,False,266
102,10,3,m,77,2021-11-23T15:05:09.357Z,gomot_a.0338.eq.wav,1,19,9165.73383021,-0.06468228,False,266
102,10,3,m,77,2021-11-23T15:05:09.357Z,gomot_a.0338.eq.wav,1,20,10639.78260555,3.77790840,False,266
102,10,3,m,77,2021-11-23T15:05:09.357Z,gomot_a.0338.eq.wav,1,21,12334.07042541,3.25110056,False,266
102,10,3,m,77,2021-11-23T15:05:09.357Z,gomot_a.0338.eq.wav,1,22,14281.50341712,-2.94477512,False,266
102,10,3,m,77,2021-11-23T15:05:09.357Z,gomot_a.0338.eq.wav,1,23,16519.90424416,-2.93566577,False,266
102,10,3,m,77,2021-11-23T15:05:09.357Z,gomot_a.0338.eq.wav,1,24,19092.74669051,-3.37264771,False,266
102,10,3,m,77,2021-11-23T15:05:09.357Z,gomot_a.0338.eq.wav,1,25,22050.00000000,-2.05722985,False,266
102,11,3,m,77,2021-11-23T15:05:09.357Z,gomot_a.0033.eq.wav,0,0,0.00000000,-3.71902538,False,277
102,11,3,m,77,2021-11-23T15:05:09.357Z,gomot_a.0033.eq.wav,0,1,104.58767290,-1.09787023,False,277
102,11,3,m,77,2021-11-23T15:05:09.357Z,gomot_a.0033.eq.wav,0,2,224.80189054,-4.53020142,False,277
102,11,3,m,77,2021-11-23T15:05:09.357Z,gomot_a.0033.eq.wav,0,3,362.97743001,1.99187458,False,277
102,11,3,m,77,2021-11-23T15:05:09.357Z,gomot_a.0033.eq.wav,0,4,521.79790965,-4.20917711,False,277
102,11,3,m,77,2021-11-23T15:05:09.357Z,gomot_a.0033.eq.wav,0,5,704.34790983,-1.09827534,False,277
102,11,3,m,77,2021-11-23T15:05:09.357Z,gomot_a.0033.eq.wav,0,6,914.17288101,-2.49700950,False,277
102,11,3,m,77,2021-11-23T15:05:09.357Z,gomot_a.0033.eq.wav,0,7,1155.34800284,-0.33239038,False,277
102,11,3,m,77,2021-11-23T15:05:09.357Z,gomot_a.0033.eq.wav,0,8,1432.55733147,2.25801500,False,277
102,11,3,m,77,2021-11-23T15:05:09.357Z,gomot_a.0033.eq.wav,0,9,1751.18477235,3.83710621,False,277
102,11,3,m,77,2021-11-23T15:05:09.357Z,gomot_a.0033.eq.wav,0,10,2117.41864548,-1.26142715,False,277
102,11,3,m,77,2021-11-23T15:05:09.357Z,gomot_a.0033.eq.wav,0,11,2538.37187364,0.93685186,False,277
102,11,3,m,77,2021-11-23T15:05:09.357Z,gomot_a.0033.eq.wav,0,12,3022.22012828,0.35601331,False,277
102,11,3,m,77,2021-11-23T15:05:09.357Z,gomot_a.0033.eq.wav,0,13,3578.36061576,4.07520100,False,277
102,11,3,m,77,2021-11-23T15:05:09.357Z,gomot_a.0033.eq.wav,0,14,4217.59458808,-4.87590746,False,277
102,11,3,m,77,2021-11-23T15:05:09.357Z,gomot_a.0033.eq.wav,0,15,4952.33712269,-4.18254226,False,277
102,11,3,m,77,2021-11-23T15:05:09.357Z,gomot_a.0033.eq.wav,0,16,5796.85824570,3.81115574,False,277
102,11,3,m,77,2021-11-23T15:05:09.357Z,gomot_a.0033.eq.wav,0,17,6767.56008152,4.25463484,False,277
102,11,3,m,77,2021-11-23T15:05:09.357Z,gomot_a.0033.eq.wav,0,18,7883.29541175,3.02102410,False,277
102,11,3,m,77,2021-11-23T15:05:09.357Z,gomot_a.0033.eq.wav,0,19,9165.73383021,-3.66016912,False,277
102,11,3,m,77,2021-11-23T15:05:09.357Z,gomot_a.0033.eq.wav,0,20,10639.78260555,-1.08618788,False,277
102,11,3,m,77,2021-11-23T15:05:09.357Z,gomot_a.0033.eq.wav,0,21,12334.07042541,1.38429524,False,277
102,11,3,m,77,2021-11-23T15:05:09.357Z,gomot_a.0033.eq.wav,0,22,14281.50341712,-1.25324475,False,277
102,11,3,m,77,2021-11-23T15:05:09.357Z,gomot_a.0033.eq.wav,0,23,16519.90424416,-2.19694444,False,277
102,11,3,m,77,2021-11-23T15:05:09.357Z,gomot_a.0033.eq.wav,0,24,19092.74669051,1.95481398,False,277
102,11,3,m,77,2021-11-23T15:05:09.357Z,gomot_a.0033.eq.wav,0,25,22050.00000000,-1.36159898,False,277
102,11,3,m,77,2021-11-23T15:05:09.357Z,gomot_a.0090.eq.wav,1,0,0.00000000,1.84061291,True,277
102,11,3,m,77,2021-11-23T15:05:09.357Z,gomot_a.0090.eq.wav,1,1,104.58767290,0.14982039,True,277
102,11,3,m,77,2021-11-23T15:05:09.357Z,gomot_a.0090.eq.wav,1,2,224.80189054,1.64114885,True,277
102,11,3,m,77,2021-11-23T15:05:09.357Z,gomot_a.0090.eq.wav,1,3,362.97743001,4.43994185,True,277
102,11,3,m,77,2021-11-23T15:05:09.357Z,gomot_a.0090.eq.wav,1,4,521.79790965,-4.21623033,True,277
102,11,3,m,77,2021-11-23T15:05:09.357Z,gomot_a.0090.eq.wav,1,5,704.34790983,4.67594932,True,277
102,11,3,m,77,2021-11-23T15:05:09.357Z,gomot_a.0090.eq.wav,1,6,914.17288101,-3.70202938,True,277
102,11,3,m,77,2021-11-23T15:05:09.357Z,gomot_a.0090.eq.wav,1,7,1155.34800284,4.41059761,True,277
102,11,3,m,77,2021-11-23T15:05:09.357Z,gomot_a.0090.eq.wav,1,8,1432.55733147,2.60088001,True,277
102,11,3,m,77,2021-11-23T15:05:09.357Z,gomot_a.0090.eq.wav,1,9,1751.18477235,3.32487613,True,277
102,11,3,m,77,2021-11-23T15:05:09.357Z,gomot_a.0090.eq.wav,1,10,2117.41864548,-2.35120738,True,277
102,11,3,m,77,2021-11-23T15:05:09.357Z,gomot_a.0090.eq.wav,1,11,2538.37187364,3.36286509,True,277
102,11,3,m,77,2021-11-23T15:05:09.357Z,gomot_a.0090.eq.wav,1,12,3022.22012828,0.12187106,True,277
102,11,3,m,77,2021-11-23T15:05:09.357Z,gomot_a.0090.eq.wav,1,13,3578.36061576,3.17845823,True,277
102,11,3,m,77,2021-11-23T15:05:09.357Z,gomot_a.0090.eq.wav,1,14,4217.59458808,0.65018772,True,277
102,11,3,m,77,2021-11-23T15:05:09.357Z,gomot_a.0090.eq.wav,1,15,4952.33712269,2.69856921,True,277
102,11,3,m,77,2021-11-23T15:05:09.357Z,gomot_a.0090.eq.wav,1,16,5796.85824570,4.23555932,True,277
102,11,3,m,77,2021-11-23T15:05:09.357Z,gomot_a.0090.eq.wav,1,17,6767.56008152,-4.57699168,True,277
102,11,3,m,77,2021-11-23T15:05:09.357Z,gomot_a.0090.eq.wav,1,18,7883.29541175,-4.62856888,True,277
102,11,3,m,77,2021-11-23T15:05:09.357Z,gomot_a.0090.eq.wav,1,19,9165.73383021,-1.86644840,True,277
102,11,3,m,77,2021-11-23T15:05:09.357Z,gomot_a.0090.eq.wav,1,20,10639.78260555,1.53525085,True,277
102,11,3,m,77,2021-11-23T15:05:09.357Z,gomot_a.0090.eq.wav,1,21,12334.07042541,-2.64285313,True,277
102,11,3,m,77,2021-11-23T15:05:09.357Z,gomot_a.0090.eq.wav,1,22,14281.50341712,2.15827989,True,277
102,11,3,m,77,2021-11-23T15:05:09.357Z,gomot_a.0090.eq.wav,1,23,16519.90424416,3.08239422,True,277
102,11,3,m,77,2021-11-23T15:05:09.357Z,gomot_a.0090.eq.wav,1,24,19092.74669051,-3.81294456,True,277
102,11,3,m,77,2021-11-23T15:05:09.357Z,gomot_a.0090.eq.wav,1,25,22050.00000000,1.55570234,True,277
102,12,4,m,77,2021-11-23T15:05:09.357Z,gomot_a.0358.eq.wav,0,0,0.00000000,3.08187462,True,408
102,12,4,m,77,2021-11-23T15:05:09.357Z,gomot_a.0358.eq.wav,0,1,104.58767290,-2.15582592,True,408
102,12,4,m,77,2021-11-23T15:05:09.357Z,gomot_a.0358.eq.wav,0,2,224.80189054,-1.42884662,True,408
102,12,4,m,77,2021-11-23T15:05:09.357Z,gomot_a.0358.eq.wav,0,3,362.97743001,-0.44909357,True,408
102,12,4,m,77,2021-11-23T15:05:09.357Z,gomot_a.0358.eq.wav,0,4,521.79790965,2.23125012,True,408
102,12,4,m,77,2021-11-23T15:05:09.357Z,gomot_a.0358.eq.wav,0,5,704.34790983,-3.06816892,True,408
102,12,4,m,77,2021-11-23T15:05:09.357Z,gomot_a.0358.eq.wav,0,6,914.17288101,-0.06824614,True,408
102,12,4,m,77,2021-11-23T15:05:09.357Z,gomot_a.0358.eq.wav,0,7,1155.34800284,-2.06221826,True,408
102,12,4,m,77,2021-11-23T15:05:09.357Z,gomot_a.0358.eq.wav,0,8,1432.55733147,-1.02614179,True,408
102,12,4,m,77,2021-11-23T15:05:09.357Z,gomot_a.0358.eq.wav,0,9,1751.18477235,1.32081536,True,408
102,12,4,m,77,2021-11-23T15:05:09.357Z,gomot_a.0358.eq.wav,0,10,2117.41864548,-1.99069184,True,408
102,12,4,m,77,2021-11-23T15:05:09.357Z,gomot_a.0358.eq.wav,0,11,2538.37187364,2.68544738,True,408
102,12,4,m,77,2021-11-23T15:05:09.357Z,gomot_a.0358.eq.wav,0,12,3022.22012828,-1.47334045,True,408
102,12,4,m,77,2021-11-23T15:05:09.357Z,gomot_a.0358.eq.wav,0,13,3578.36061576,3.34735339,True,408
102,12,4,m,77,2021-11-23T15:05:09.357Z,gomot_a.0358.eq.wav,0,14,4217.59458808,2.12727298,True,408
102,12,4,m,77,2021-11-23T15:05:09.357Z,gomot_a.0358.eq.wav,0,15,4952.33712269,3.98246854,True,408
102,12,4,m,77,2021-11-23T15:05:09.357Z,gomot_a.0358.eq.wav,0,16,5796.85824570,2.60801560,True,408
102,12,4,m,77,2021-11-23T15:05:09.357Z,gomot_a.0358.eq.wav,0,17,6767.56008152,-4.31595076,True,408
102,12,4,m,77,2021-11-23T15:05:09.357Z,gomot_a.0358.eq.wav,0,18,7883.29541175,-2.53146078,True,408
102,12,4,m,77,2021-11-23T15:05:09.357Z,gomot_a.0358.eq.wav,0,19,9165.73383021,-0.29616383,True,408
102,12,4,m,77,2021-11-23T15:05:09.357Z,gomot_a.0358.eq.wav,0,20,10639.78260555,-1.66291973,True,408
102,12,4,m,77,2021-11-23T15:05:09.357Z,gomot_a.0358.eq.wav,0,21,12334.07042541,-2.76734264,True,408
102,12,4,m,77,2021-11-23T15:05:09.357Z,gomot_a.0358.eq.wav,0,22,14281.50341712,-0.59419535,True,408
102,12,4,m,77,2021-11-23T15:05:09.357Z,gomot_a.0358.eq.wav,0,23,16519.90424416,0.02217455,True,408
102,12,4,m,77,2021-11-23T15:05:09.357Z,gomot_a.0358.eq.wav,0,24,19092.74669051,0.80139722,True,408
102,12,4,m,77,2021-11-23T15:05:09.357Z,gomot_a.0358.eq.wav,0,25,22050.00000000,-1.10192375,True,408
102,12,4,m,77,2021-11-23T15:05:09.357Z,gomot_a.0102.eq.wav,1,0,0.00000000,4.90353862,False,408
102,12,4,m,77,2021-11-23T15:05:09.357Z,gomot_a.0102.eq.wav,1,1,104.58767290,1.60151627,False,408
102,12,4,m,77,2021-11-23T15:05:09.357Z,gomot_a.0102.eq.wav,1,2,224.80189054,3.47058087,False,408
102,12,4,m,77,2021-11-23T15:05:09.357Z,gomot_a.0102.eq.wav,1,3,362.97743001,0.59176916,False,408
102,12,4,m,77,2021-11-23T15:05:09.357Z,gomot_a.0102.eq.wav,1,4,521.79790965,-0.96410048,False,408
102,12,4,m,77,2021-11-23T15:05:09.357Z,gomot_a.0102.eq.wav,1,5,704.34790983,4.12738348,False,408
102,12,4,m,77,2021-11-23T15:05:09.357Z,gomot_a.0102.eq.wav,1,6,914.17288101,2.87239941,False,408
102,12,4,m,77,2021-11-23T15:05:09.357Z,gomot_a.0102.eq.wav,1,7,1155.34800284,4.96050189,False,408
102,12,4,m,77,2021-11-23T15:05:09.357Z,gomot_a.0102.eq.wav,1,8,1432.55733147,-0.58151180,False,408
102,12,4,m,77,2021-11-23T15:05:09.357Z,gomot_a.0102.eq.wav,1,9,1751.18477235,-2.51312517,False,408
102,12,4,m,77,2021-11-23T15:05:09.357Z,gomot_a.0102.eq.wav,1,10,2117.41864548,-2.53907603,False,408
102,12,4,m,77,2021-11-23T15:05:09.357Z,gomot_a.0102.eq.wav,1,11,2538.37187364,1.87022609,False,408
102,12,4,m,77,2021-11-23T15:05:09.357Z,gomot_a.0102.eq.wav,1,12,3022.22012828,-1.43366792,False,408
102,12,4,m,77,2021-11-23T15:05:09.357Z,gomot_a.0102.eq.wav,1,13,3578.36061576,-2.20977769,False,408
102,12,4,m,77,2021-11-23T15:05:09.357Z,gomot_a.0102.eq.wav,1,14,4217.59458808,2.84576734,False,408
102,12,4,m,77,2021-11-23T15:05:09.357Z,gomot_a.0102.eq.wav,1,15,4952.33712269,1.90097275,False,408
102,12,4,m,77,2021-11-23T15:05:09.357Z,gomot_a.0102.eq.wav,1,16,5796.85824570,0.15415524,False,408
102,12,4,m,77,2021-11-23T15:05:09.357Z,gomot_a.0102.eq.wav,1,17,6767.56008152,0.21537229,False,408
102,12,4,m,77,2021-11-23T15:05:09.357Z,gomot_a.0102.eq.wav,1,18,7883.29541175,3.91094137,False,408
102,12,4,m,77,2021-11-23T15:05:09.357Z,gomot_a.0102.eq.wav,1,19,9165.73383021,3.23382790,False,408
102,12,4,m,77,2021-11-23T15:05:09.357Z,gomot_a.0102.eq.wav,1,20,10639.78260555,3.12738654,False,408
102,12,4,m,77,2021-11-23T15:05:09.357Z,gomot_a.0102.eq.wav,1,21,12334.07042541,3.58180546,False,408
102,12,4,m,77,2021-11-23T15:05:09.357Z,gomot_a.0102.eq.wav,1,22,14281.50341712,2.70138802,False,408
102,12,4,m,77,2021-11-23T15:05:09.357Z,gomot_a.0102.eq.wav,1,23,16519.90424416,0.91446145,False,408
102,12,4,m,77,2021-11-23T15:05:09.357Z,gomot_a.0102.eq.wav,1,24,19092.74669051,4.69954041,False,408
102,12,4,m,77,2021-11-23T15:05:09.357Z,gomot_a.0102.eq.wav,1,25,22050.00000000,-4.75335656,False,408
102,13,4,m,77,2021-11-23T15:05:09.357Z,gomot_a.0402.eq.wav,0,0,0.00000000,-1.86234850,False,267
102,13,4,m,77,2021-11-23T15:05:09.357Z,gomot_a.0402.eq.wav,0,1,104.58767290,1.28617718,False,267
102,13,4,m,77,2021-11-23T15:05:09.357Z,gomot_a.0402.eq.wav,0,2,224.80189054,2.75091516,False,267
102,13,4,m,77,2021-11-23T15:05:09.357Z,gomot_a.0402.eq.wav,0,3,362.97743001,3.23506738,False,267
102,13,4,m,77,2021-11-23T15:05:09.357Z,gomot_a.0402.eq.wav,0,4,521.79790965,3.53202319,False,267
102,13,4,m,77,2021-11-23T15:05:09.357Z,gomot_a.0402.eq.wav,0,5,704.34790983,-0.90328154,False,267
102,13,4,m,77,2021-11-23T15:05:09.357Z,gomot_a.0402.eq.wav,0,6,914.17288101,-0.18648303,False,267
102,13,4,m,77,2021-11-23T15:05:09.357Z,gomot_a.0402.eq.wav,0,7,1155.34800284,1.70500408,False,267
102,13,4,m,77,2021-11-23T15:05:09.357Z,gomot_a.0402.eq.wav,0,8,1432.55733147,-4.82741015,False,267
102,13,4,m,77,2021-11-23T15:05:09.357Z,gomot_a.0402.eq.wav,0,9,1751.18477235,-3.67203506,False,267
102,13,4,m,77,2021-11-23T15:05:09.357Z,gomot_a.0402.eq.wav,0,10,2117.41864548,-3.25526305,False,267
102,13,4,m,77,2021-11-23T15:05:09.357Z,gomot_a.0402.eq.wav,0,11,2538.37187364,1.21431458,False,267
102,13,4,m,77,2021-11-23T15:05:09.357Z,gomot_a.0402.eq.wav,0,12,3022.22012828,1.28360941,False,267
102,13,4,m,77,2021-11-23T15:05:09.357Z,gomot_a.0402.eq.wav,0,13,3578.36061576,2.26491654,False,267
102,13,4,m,77,2021-11-23T15:05:09.357Z,gomot_a.0402.eq.wav,0,14,4217.59458808,2.76287224,False,267
102,13,4,m,77,2021-11-23T15:05:09.357Z,gomot_a.0402.eq.wav,0,15,4952.33712269,-2.46405241,False,267
102,13,4,m,77,2021-11-23T15:05:09.357Z,gomot_a.0402.eq.wav,0,16,5796.85824570,-3.16377735,False,267
102,13,4,m,77,2021-11-23T15:05:09.357Z,gomot_a.0402.eq.wav,0,17,6767.56008152,-4.12587825,False,267
102,13,4,m,77,2021-11-23T15:05:09.357Z,gomot_a.0402.eq.wav,0,18,7883.29541175,-4.54516611,False,267
102,13,4,m,77,2021-11-23T15:05:09.357Z,gomot_a.0402.eq.wav,0,19,9165.73383021,1.68110012,False,267
102,13,4,m,77,2021-11-23T15:05:09.357Z,gomot_a.0402.eq.wav,0,20,10639.78260555,4.21797865,False,267
102,13,4,m,77,2021-11-23T15:05:09.357Z,gomot_a.0402.eq.wav,0,21,12334.07042541,0.53585725,False,267
102,13,4,m,77,2021-11-23T15:05:09.357Z,gomot_a.0402.eq.wav,0,22,14281.50341712,-3.24016763,False,267
102,13,4,m,77,2021-11-23T15:05:09.357Z,gomot_a.0402.eq.wav,0,23,16519.90424416,3.61010440,False,267
102,13,4,m,77,2021-11-23T15:05:09.357Z,gomot_a.0402.eq.wav,0,24,19092.74669051,-3.37291699,False,267
102,13,4,m,77,2021-11-23T15:05:09.357Z,gomot_a.0402.eq.wav,0,25,22050.00000000,1.05856121,False,267
102,13,4,m,77,2021-11-23T15:05:09.357Z,gomot_a.0297.eq.wav,1,0,0.00000000,2.97656612,True,267
102,13,4,m,77,2021-11-23T15:05:09.357Z,gomot_a.0297.eq.wav,1,1,104.58767290,0.96617240,True,267
102,13,4,m,77,2021-11-23T15:05:09.357Z,gomot_a.0297.eq.wav,1,2,224.80189054,0.89705549,True,267
102,13,4,m,77,2021-11-23T15:05:09.357Z,gomot_a.0297.eq.wav,1,3,362.97743001,-0.40752984,True,267
102,13,4,m,77,2021-11-23T15:05:09.357Z,gomot_a.0297.eq.wav,1,4,521.79790965,-1.10646297,True,267
102,13,4,m,77,2021-11-23T15:05:09.357Z,gomot_a.0297.eq.wav,1,5,704.34790983,-1.56393920,True,267
102,13,4,m,77,2021-11-23T15:05:09.357Z,gomot_a.0297.eq.wav,1,6,914.17288101,0.96688453,True,267
102,13,4,m,77,2021-11-23T15:05:09.357Z,gomot_a.0297.eq.wav,1,7,1155.34800284,1.91714986,True,267
102,13,4,m,77,2021-11-23T15:05:09.357Z,gomot_a.0297.eq.wav,1,8,1432.55733147,0.52882254,True,267
102,13,4,m,77,2021-11-23T15:05:09.357Z,gomot_a.0297.eq.wav,1,9,1751.18477235,3.60751788,True,267
102,13,4,m,77,2021-11-23T15:05:09.357Z,gomot_a.0297.eq.wav,1,10,2117.41864548,-4.21810286,True,267
102,13,4,m,77,2021-11-23T15:05:09.357Z,gomot_a.0297.eq.wav,1,11,2538.37187364,-4.67040978,True,267
102,13,4,m,77,2021-11-23T15:05:09.357Z,gomot_a.0297.eq.wav,1,12,3022.22012828,-2.04257262,True,267
102,13,4,m,77,2021-11-23T15:05:09.357Z,gomot_a.0297.eq.wav,1,13,3578.36061576,-2.69159541,True,267
102,13,4,m,77,2021-11-23T15:05:09.357Z,gomot_a.0297.eq.wav,1,14,4217.59458808,-3.69070138,True,267
102,13,4,m,77,2021-11-23T15:05:09.357Z,gomot_a.0297.eq.wav,1,15,4952.33712269,-0.67518270,True,267
102,13,4,m,77,2021-11-23T15:05:09.357Z,gomot_a.0297.eq.wav,1,16,5796.85824570,1.87910717,True,267
102,13,4,m,77,2021-11-23T15:05:09.357Z,gomot_a.0297.eq.wav,1,17,6767.56008152,-1.62857114,True,267
102,13,4,m,77,2021-11-23T15:05:09.357Z,gomot_a.0297.eq.wav,1,18,7883.29541175,-3.99462589,True,267
102,13,4,m,77,2021-11-23T15:05:09.357Z,gomot_a.0297.eq.wav,1,19,9165.73383021,-2.73656314,True,267
102,13,4,m,77,2021-11-23T15:05:09.357Z,gomot_a.0297.eq.wav,1,20,10639.78260555,2.40186621,True,267
102,13,4,m,77,2021-11-23T15:05:09.357Z,gomot_a.0297.eq.wav,1,21,12334.07042541,-2.98822140,True,267
102,13,4,m,77,2021-11-23T15:05:09.357Z,gomot_a.0297.eq.wav,1,22,14281.50341712,4.85037441,True,267
102,13,4,m,77,2021-11-23T15:05:09.357Z,gomot_a.0297.eq.wav,1,23,16519.90424416,-1.41979653,True,267
102,13,4,m,77,2021-11-23T15:05:09.357Z,gomot_a.0297.eq.wav,1,24,19092.74669051,-3.73906502,True,267
102,13,4,m,77,2021-11-23T15:05:09.357Z,gomot_a.0297.eq.wav,1,25,22050.00000000,-0.59489811,True,267
102,14,4,m,77,2021-11-23T15:05:09.357Z,gomot_a.0101.eq.wav,0,0,0.00000000,2.62757572,False,282
102,14,4,m,77,2021-11-23T15:05:09.357Z,gomot_a.0101.eq.wav,0,1,104.58767290,-4.05006123,False,282
102,14,4,m,77,2021-11-23T15:05:09.357Z,gomot_a.0101.eq.wav,0,2,224.80189054,3.01583248,False,282
102,14,4,m,77,2021-11-23T15:05:09.357Z,gomot_a.0101.eq.wav,0,3,362.97743001,-1.77877573,False,282
102,14,4,m,77,2021-11-23T15:05:09.357Z,gomot_a.0101.eq.wav,0,4,521.79790965,-3.44658517,False,282
102,14,4,m,77,2021-11-23T15:05:09.357Z,gomot_a.0101.eq.wav,0,5,704.34790983,-0.32723377,False,282
102,14,4,m,77,2021-11-23T15:05:09.357Z,gomot_a.0101.eq.wav,0,6,914.17288101,-1.66749876,False,282
102,14,4,m,77,2021-11-23T15:05:09.357Z,gomot_a.0101.eq.wav,0,7,1155.34800284,-1.00550881,False,282
102,14,4,m,77,2021-11-23T15:05:09.357Z,gomot_a.0101.eq.wav,0,8,1432.55733147,-1.52715386,False,282
102,14,4,m,77,2021-11-23T15:05:09.357Z,gomot_a.0101.eq.wav,0,9,1751.18477235,3.11914866,False,282
102,14,4,m,77,2021-11-23T15:05:09.357Z,gomot_a.0101.eq.wav,0,10,2117.41864548,-0.71374087,False,282
102,14,4,m,77,2021-11-23T15:05:09.357Z,gomot_a.0101.eq.wav,0,11,2538.37187364,-2.45218565,False,282
102,14,4,m,77,2021-11-23T15:05:09.357Z,gomot_a.0101.eq.wav,0,12,3022.22012828,-4.70840213,False,282
102,14,4,m,77,2021-11-23T15:05:09.357Z,gomot_a.0101.eq.wav,0,13,3578.36061576,3.65108766,False,282
102,14,4,m,77,2021-11-23T15:05:09.357Z,gomot_a.0101.eq.wav,0,14,4217.59458808,-0.94531613,False,282
102,14,4,m,77,2021-11-23T15:05:09.357Z,gomot_a.0101.eq.wav,0,15,4952.33712269,-0.37369905,False,282
102,14,4,m,77,2021-11-23T15:05:09.357Z,gomot_a.0101.eq.wav,0,16,5796.85824570,3.95068525,False,282
102,14,4,m,77,2021-11-23T15:05:09.357Z,gomot_a.0101.eq.wav,0,17,6767.56008152,-0.61213206,False,282
102,14,4,m,77,2021-11-23T15:05:09.357Z,gomot_a.0101.eq.wav,0,18,7883.29541175,4.54064866,False,282
102,14,4,m,77,2021-11-23T15:05:09.357Z,gomot_a.0101.eq.wav,0,19,9165.73383021,0.32972508,False,282
102,14,4,m,77,2021-11-23T15:05:09.357Z,gomot_a.0101.eq.wav,0,20,10639.78260555,-3.09393259,False,282
102,14,4,m,77,2021-11-23T15:05:09.357Z,gomot_a.0101.eq.wav,0,21,12334.07042541,-0.32114906,False,282
102,14,4,m,77,2021-11-23T15:05:09.357Z,gomot_a.0101.eq.wav,0,22,14281.50341712,3.51693548,False,282
102,14,4,m,77,2021-11-23T15:05:09.357Z,gomot_a.0101.eq.wav,0,23,16519.90424416,1.27155774,False,282
102,14,4,m,77,2021-11-23T15:05:09.357Z,gomot_a.0101.eq.wav,0,24,19092.74669051,-0.46343402,False,282
102,14,4,m,77,2021-11-23T15:05:09.357Z,gomot_a.0101.eq.wav,0,25,22050.00000000,0.80335290,False,282
102,14,4,m,77,2021-11-23T15:05:09.357Z,gomot_a.0273.eq.wav,1,0,0.00000000,0.95813269,True,282
102,14,4,m,77,2021-11-23T15:05:09.357Z,gomot_a.0273.eq.wav,1,1,104.58767290,-1.39650572,True,282
102,14,4,m,77,2021-11-23T15:05:09.357Z,gomot_a.0273.eq.wav,1,2,224.80189054,-1.66861861,True,282
102,14,4,m,77,2021-11-23T15:05:09.357Z,gomot_a.0273.eq.wav,1,3,362.97743001,-1.80152962,True,282
102,14,4,m,77,2021-11-23T15:05:09.357Z,gomot_a.0273.eq.wav,1,4,521.79790965,-3.13927169,True,282
102,14,4,m,77,2021-11-23T15:05:09.357Z,gomot_a.0273.eq.wav,1,5,704.34790983,1.92304667,True,282
102,14,4,m,77,2021-11-23T15:05:09.357Z,gomot_a.0273.eq.wav,1,6,914.17288101,0.82592649,True,282
102,14,4,m,77,2021-11-23T15:05:09.357Z,gomot_a.0273.eq.wav,1,7,1155.34800284,4.71174080,True,282
102,14,4,m,77,2021-11-23T15:05:09.357Z,gomot_a.0273.eq.wav,1,8,1432.55733147,3.55265738,True,282
102,14,4,m,77,2021-11-23T15:05:09.357Z,gomot_a.0273.eq.wav,1,9,1751.18477235,-2.68378549,True,282
102,14,4,m,77,2021-11-23T15:05:09.357Z,gomot_a.0273.eq.wav,1,10,2117.41864548,-2.38321217,True,282
102,14,4,m,77,2021-11-23T15:05:09.357Z,gomot_a.0273.eq.wav,1,11,2538.37187364,2.77981108,True,282
102,14,4,m,77,2021-11-23T15:05:09.357Z,gomot_a.0273.eq.wav,1,12,3022.22012828,0.33878317,True,282
102,14,4,m,77,2021-11-23T15:05:09.357Z,gomot_a.0273.eq.wav,1,13,3578.36061576,1.14020510,True,282
102,14,4,m,77,2021-11-23T15:05:09.357Z,gomot_a.0273.eq.wav,1,14,4217.59458808,-1.74815660,True,282
102,14,4,m,77,2021-11-23T15:05:09.357Z,gomot_a.0273.eq.wav,1,15,4952.33712269,-3.75601021,True,282
102,14,4,m,77,2021-11-23T15:05:09.357Z,gomot_a.0273.eq.wav,1,16,5796.85824570,2.55134467,True,282
102,14,4,m,77,2021-11-23T15:05:09.357Z,gomot_a.0273.eq.wav,1,17,6767.56008152,2.03960274,True,282
102,14,4,m,77,2021-11-23T15:05:09.357Z,gomot_a.0273.eq.wav,1,18,7883.29541175,2.41041313,True,282
102,14,4,m,77,2021-11-23T15:05:09.357Z,gomot_a.0273.eq.wav,1,19,9165.73383021,4.65684317,True,282
102,14,4,m,77,2021-11-23T15:05:09.357Z,gomot_a.0273.eq.wav,1,20,10639.78260555,-4.37369956,True,282
102,14,4,m,77,2021-11-23T15:05:09.357Z,gomot_a.0273.eq.wav,1,21,12334.07042541,0.79934064,True,282
102,14,4,m,77,2021-11-23T15:05:09.357Z,gomot_a.0273.eq.wav,1,22,14281.50341712,0.05464717,True,282
102,14,4,m,77,2021-11-23T15:05:09.357Z,gomot_a.0273.eq.wav,1,23,16519.90424416,1.53949148,True,282
102,14,4,m,77,2021-11-23T15:05:09.357Z,gomot_a.0273.eq.wav,1,24,19092.74669051,-2.50560604,True,282
102,14,4,m,77,2021-11-23T15:05:09.357Z,gomot_a.0273.eq.wav,1,25,22050.00000000,4.57073105,True,282
102,15,5,m,77,2021-11-23T15:05:09.357Z,gomot_a.0031.eq.wav,0,0,0.00000000,2.49807393,True,348
102,15,5,m,77,2021-11-23T15:05:09.357Z,gomot_a.0031.eq.wav,0,1,104.58767290,-2.77416471,True,348
102,15,5,m,77,2021-11-23T15:05:09.357Z,gomot_a.0031.eq.wav,0,2,224.80189054,-3.32366790,True,348
102,15,5,m,77,2021-11-23T15:05:09.357Z,gomot_a.0031.eq.wav,0,3,362.97743001,0.70384420,True,348
102,15,5,m,77,2021-11-23T15:05:09.357Z,gomot_a.0031.eq.wav,0,4,521.79790965,-1.48754937,True,348
102,15,5,m,77,2021-11-23T15:05:09.357Z,gomot_a.0031.eq.wav,0,5,704.34790983,2.12118523,True,348
102,15,5,m,77,2021-11-23T15:05:09.357Z,gomot_a.0031.eq.wav,0,6,914.17288101,3.74506973,True,348
102,15,5,m,77,2021-11-23T15:05:09.357Z,gomot_a.0031.eq.wav,0,7,1155.34800284,-1.76524886,True,348
102,15,5,m,77,2021-11-23T15:05:09.357Z,gomot_a.0031.eq.wav,0,8,1432.55733147,-4.41452631,True,348
102,15,5,m,77,2021-11-23T15:05:09.357Z,gomot_a.0031.eq.wav,0,9,1751.18477235,0.22001527,True,348
102,15,5,m,77,2021-11-23T15:05:09.357Z,gomot_a.0031.eq.wav,0,10,2117.41864548,1.72640174,True,348
102,15,5,m,77,2021-11-23T15:05:09.357Z,gomot_a.0031.eq.wav,0,11,2538.37187364,1.11784530,True,348
102,15,5,m,77,2021-11-23T15:05:09.357Z,gomot_a.0031.eq.wav,0,12,3022.22012828,2.77057574,True,348
102,15,5,m,77,2021-11-23T15:05:09.357Z,gomot_a.0031.eq.wav,0,13,3578.36061576,3.94540661,True,348
102,15,5,m,77,2021-11-23T15:05:09.357Z,gomot_a.0031.eq.wav,0,14,4217.59458808,3.45849095,True,348
102,15,5,m,77,2021-11-23T15:05:09.357Z,gomot_a.0031.eq.wav,0,15,4952.33712269,4.89420891,True,348
102,15,5,m,77,2021-11-23T15:05:09.357Z,gomot_a.0031.eq.wav,0,16,5796.85824570,-2.52136766,True,348
102,15,5,m,77,2021-11-23T15:05:09.357Z,gomot_a.0031.eq.wav,0,17,6767.56008152,-0.76053649,True,348
102,15,5,m,77,2021-11-23T15:05:09.357Z,gomot_a.0031.eq.wav,0,18,7883.29541175,3.16878141,True,348
102,15,5,m,77,2021-11-23T15:05:09.357Z,gomot_a.0031.eq.wav,0,19,9165.73383021,-0.52227274,True,348
102,15,5,m,77,2021-11-23T15:05:09.357Z,gomot_a.0031.eq.wav,0,20,10639.78260555,-0.12188910,True,348
102,15,5,m,77,2021-11-23T15:05:09.357Z,gomot_a.0031.eq.wav,0,21,12334.07042541,2.90478492,True,348
102,15,5,m,77,2021-11-23T15:05:09.357Z,gomot_a.0031.eq.wav,0,22,14281.50341712,-4.63460188,True,348
102,15,5,m,77,2021-11-23T15:05:09.357Z,gomot_a.0031.eq.wav,0,23,16519.90424416,-2.17996485,True,348
102,15,5,m,77,2021-11-23T15:05:09.357Z,gomot_a.0031.eq.wav,0,24,19092.74669051,1.94605296,True,348
102,15,5,m,77,2021-11-23T15:05:09.357Z,gomot_a.0031.eq.wav,0,25,22050.00000000,0.96865105,True,348
102,15,5,m,77,2021-11-23T15:05:09.357Z,gomot_a.0339.eq.wav,1,0,0.00000000,1.05799435,False,348
102,15,5,m,77,2021-11-23T15:05:09.357Z,gomot_a.0339.eq.wav,1,1,104.58767290,-3.64430534,False,348
102,15,5,m,77,2021-11-23T15:05:09.357Z,gomot_a.0339.eq.wav,1,2,224.80189054,-0.54618178,False,348
102,15,5,m,77,2021-11-23T15:05:09.357Z,gomot_a.0339.eq.wav,1,3,362.97743001,4.61420229,False,348
102,15,5,m,77,2021-11-23T15:05:09.357Z,gomot_a.0339.eq.wav,1,4,521.79790965,3.44332854,False,348
102,15,5,m,77,2021-11-23T15:05:09.357Z,gomot_a.0339.eq.wav,1,5,704.34790983,0.97486870,False,348
102,15,5,m,77,2021-11-23T15:05:09.357Z,gomot_a.0339.eq.wav,1,6,914.17288101,2.07776643,False,348
102,15,5,m,77,2021-11-23T15:05:09.357Z,gomot_a.0339.eq.wav,1,7,1155.34800284,4.77281139,False,348
102,15,5,m,77,2021-11-23T15:05:09.357Z,gomot_a.0339.eq.wav,1,8,1432.55733147,-1.81249010,False,348
102,15,5,m,77,2021-11-23T15:05:09.357Z,gomot_a.0339.eq.wav,1,9,1751.18477235,3.71796296,False,348
102,15,5,m,77,2021-11-23T15:05:09.357Z,gomot_a.0339.eq.wav,1,10,2117.41864548,1.09055470,False,348
102,15,5,m,77,2021-11-23T15:05:09.357Z,gomot_a.0339.eq.wav,1,11,2538.37187364,-1.24776078,False,348
102,15,5,m,77,2021-11-23T15:05:09.357Z,gomot_a.0339.eq.wav,1,12,3022.22012828,-0.76642100,False,348
102,15,5,m,77,2021-11-23T15:05:09.357Z,gomot_a.0339.eq.wav,1,13,3578.36061576,2.38333318,False,348
102,15,5,m,77,2021-11-23T15:05:09.357Z,gomot_a.0339.eq.wav,1,14,4217.59458808,-1.29962773,False,348
102,15,5,m,77,2021-11-23T15:05:09.357Z,gomot_a.0339.eq.wav,1,15,4952.33712269,-3.42362016,False,348
102,15,5,m,77,2021-11-23T15:05:09.357Z,gomot_a.0339.eq.wav,1,16,5796.85824570,-0.29174392,False,348
102,15,5,m,77,2021-11-23T15:05:09.357Z,gomot_a.0339.eq.wav,1,17,6767.56008152,-0.27754965,False,348
102,15,5,m,77,2021-11-23T15:05:09.357Z,gomot_a.0339.eq.wav,1,18,7883.29541175,-4.81546464,False,348
102,15,5,m,77,2021-11-23T15:05:09.357Z,gomot_a.0339.eq.wav,1,19,9165.73383021,3.12098147,False,348
102,15,5,m,77,2021-11-23T15:05:09.357Z,gomot_a.0339.eq.wav,1,20,10639.78260555,-3.71302685,False,348
102,15,5,m,77,2021-11-23T15:05:09.357Z,gomot_a.0339.eq.wav,1,21,12334.07042541,-4.01136805,False,348
102,15,5,m,77,2021-11-23T15:05:09.357Z,gomot_a.0339.eq.wav,1,22,14281.50341712,4.79896687,False,348
102,15,5,m,77,2021-11-23T15:05:09.357Z,gomot_a.0339.eq.wav,1,23,16519.90424416,-2.99086181,False,348
102,15,5,m,77,2021-11-23T15:05:09.357Z,gomot_a.0339.eq.wav,1,24,19092.74669051,1.41467652,False,348
102,15,5,m,77,2021-11-23T15:05:09.357Z,gomot_a.0339.eq.wav,1,25,22050.00000000,-1.19364285,False,348
102,16,5,m,77,2021-11-23T15:05:09.357Z,gomot_a.0509.eq.wav,0,0,0.00000000,-2.82131855,False,615
102,16,5,m,77,2021-11-23T15:05:09.357Z,gomot_a.0509.eq.wav,0,1,104.58767290,1.32530276,False,615
102,16,5,m,77,2021-11-23T15:05:09.357Z,gomot_a.0509.eq.wav,0,2,224.80189054,-3.43325225,False,615
102,16,5,m,77,2021-11-23T15:05:09.357Z,gomot_a.0509.eq.wav,0,3,362.97743001,2.79313397,False,615
102,16,5,m,77,2021-11-23T15:05:09.357Z,gomot_a.0509.eq.wav,0,4,521.79790965,-0.24247146,False,615
102,16,5,m,77,2021-11-23T15:05:09.357Z,gomot_a.0509.eq.wav,0,5,704.34790983,-1.69885024,False,615
102,16,5,m,77,2021-11-23T15:05:09.357Z,gomot_a.0509.eq.wav,0,6,914.17288101,1.86378513,False,615
102,16,5,m,77,2021-11-23T15:05:09.357Z,gomot_a.0509.eq.wav,0,7,1155.34800284,3.17165117,False,615
102,16,5,m,77,2021-11-23T15:05:09.357Z,gomot_a.0509.eq.wav,0,8,1432.55733147,-2.42228421,False,615
102,16,5,m,77,2021-11-23T15:05:09.357Z,gomot_a.0509.eq.wav,0,9,1751.18477235,0.01109947,False,615
102,16,5,m,77,2021-11-23T15:05:09.357Z,gomot_a.0509.eq.wav,0,10,2117.41864548,3.22718892,False,615
102,16,5,m,77,2021-11-23T15:05:09.357Z,gomot_a.0509.eq.wav,0,11,2538.37187364,4.31226882,False,615
102,16,5,m,77,2021-11-23T15:05:09.357Z,gomot_a.0509.eq.wav,0,12,3022.22012828,2.30762244,False,615
102,16,5,m,77,2021-11-23T15:05:09.357Z,gomot_a.0509.eq.wav,0,13,3578.36061576,3.08266737,False,615
102,16,5,m,77,2021-11-23T15:05:09.357Z,gomot_a.0509.eq.wav,0,14,4217.59458808,2.62873249,False,615
102,16,5,m,77,2021-11-23T15:05:09.357Z,gomot_a.0509.eq.wav,0,15,4952.33712269,4.67735304,False,615
102,16,5,m,77,2021-11-23T15:05:09.357Z,gomot_a.0509.eq.wav,0,16,5796.85824570,-3.42210615,False,615
102,16,5,m,77,2021-11-23T15:05:09.357Z,gomot_a.0509.eq.wav,0,17,6767.56008152,0.76741932,False,615
102,16,5,m,77,2021-11-23T15:05:09.357Z,gomot_a.0509.eq.wav,0,18,7883.29541175,1.85201435,False,615
102,16,5,m,77,2021-11-23T15:05:09.357Z,gomot_a.0509.eq.wav,0,19,9165.73383021,-0.77543021,False,615
102,16,5,m,77,2021-11-23T15:05:09.357Z,gomot_a.0509.eq.wav,0,20,10639.78260555,-1.98065878,False,615
102,16,5,m,77,2021-11-23T15:05:09.357Z,gomot_a.0509.eq.wav,0,21,12334.07042541,-0.99982132,False,615
102,16,5,m,77,2021-11-23T15:05:09.357Z,gomot_a.0509.eq.wav,0,22,14281.50341712,4.27138403,False,615
102,16,5,m,77,2021-11-23T15:05:09.357Z,gomot_a.0509.eq.wav,0,23,16519.90424416,-4.89185331,False,615
102,16,5,m,77,2021-11-23T15:05:09.357Z,gomot_a.0509.eq.wav,0,24,19092.74669051,1.74716285,False,615
102,16,5,m,77,2021-11-23T15:05:09.357Z,gomot_a.0509.eq.wav,0,25,22050.00000000,4.03748732,False,615
102,16,5,m,77,2021-11-23T15:05:09.357Z,gomot_a.0172.eq.wav,1,0,0.00000000,-3.79666470,True,615
102,16,5,m,77,2021-11-23T15:05:09.357Z,gomot_a.0172.eq.wav,1,1,104.58767290,2.97109567,True,615
102,16,5,m,77,2021-11-23T15:05:09.357Z,gomot_a.0172.eq.wav,1,2,224.80189054,0.26011981,True,615
102,16,5,m,77,2021-11-23T15:05:09.357Z,gomot_a.0172.eq.wav,1,3,362.97743001,0.65684261,True,615
102,16,5,m,77,2021-11-23T15:05:09.357Z,gomot_a.0172.eq.wav,1,4,521.79790965,-1.42190639,True,615
102,16,5,m,77,2021-11-23T15:05:09.357Z,gomot_a.0172.eq.wav,1,5,704.34790983,1.04013567,True,615
102,16,5,m,77,2021-11-23T15:05:09.357Z,gomot_a.0172.eq.wav,1,6,914.17288101,-4.74889196,True,615
102,16,5,m,77,2021-11-23T15:05:09.357Z,gomot_a.0172.eq.wav,1,7,1155.34800284,2.39836075,True,615
102,16,5,m,77,2021-11-23T15:05:09.357Z,gomot_a.0172.eq.wav,1,8,1432.55733147,1.08926140,True,615
102,16,5,m,77,2021-11-23T15:05:09.357Z,gomot_a.0172.eq.wav,1,9,1751.18477235,1.94556624,True,615
102,16,5,m,77,2021-11-23T15:05:09.357Z,gomot_a.0172.eq.wav,1,10,2117.41864548,2.12512941,True,615
102,16,5,m,77,2021-11-23T15:05:09.357Z,gomot_a.0172.eq.wav,1,11,2538.37187364,-4.09118868,True,615
102,16,5,m,77,2021-11-23T15:05:09.357Z,gomot_a.0172.eq.wav,1,12,3022.22012828,-3.15161722,True,615
102,16,5,m,77,2021-11-23T15:05:09.357Z,gomot_a.0172.eq.wav,1,13,3578.36061576,4.16447568,True,615
102,16,5,m,77,2021-11-23T15:05:09.357Z,gomot_a.0172.eq.wav,1,14,4217.59458808,2.44467235,True,615
102,16,5,m,77,2021-11-23T15:05:09.357Z,gomot_a.0172.eq.wav,1,15,4952.33712269,0.28595960,True,615
102,16,5,m,77,2021-11-23T15:05:09.357Z,gomot_a.0172.eq.wav,1,16,5796.85824570,-0.19123532,True,615
102,16,5,m,77,2021-11-23T15:05:09.357Z,gomot_a.0172.eq.wav,1,17,6767.56008152,-0.93546969,True,615
102,16,5,m,77,2021-11-23T15:05:09.357Z,gomot_a.0172.eq.wav,1,18,7883.29541175,2.38659545,True,615
102,16,5,m,77,2021-11-23T15:05:09.357Z,gomot_a.0172.eq.wav,1,19,9165.73383021,-0.76034226,True,615
102,16,5,m,77,2021-11-23T15:05:09.357Z,gomot_a.0172.eq.wav,1,20,10639.78260555,4.55788341,True,615
102,16,5,m,77,2021-11-23T15:05:09.357Z,gomot_a.0172.eq.wav,1,21,12334.07042541,-2.04732357,True,615
102,16,5,m,77,2021-11-23T15:05:09.357Z,gomot_a.0172.eq.wav,1,22,14281.50341712,2.94611068,True,615
102,16,5,m,77,2021-11-23T15:05:09.357Z,gomot_a.0172.eq.wav,1,23,16519.90424416,-4.42469348,True,615
102,16,5,m,77,2021-11-23T15:05:09.357Z,gomot_a.0172.eq.wav,1,24,19092.74669051,1.36277878,True,615
102,16,5,m,77,2021-11-23T15:05:09.357Z,gomot_a.0172.eq.wav,1,25,22050.00000000,-3.66701820,True,615
102,17,5,m,77,2021-11-23T15:05:09.357Z,gomot_a.0250.eq.wav,0,0,0.00000000,-3.17459539,False,278
102,17,5,m,77,2021-11-23T15:05:09.357Z,gomot_a.0250.eq.wav,0,1,104.58767290,1.95938867,False,278
102,17,5,m,77,2021-11-23T15:05:09.357Z,gomot_a.0250.eq.wav,0,2,224.80189054,-1.89665237,False,278
102,17,5,m,77,2021-11-23T15:05:09.357Z,gomot_a.0250.eq.wav,0,3,362.97743001,-0.30103959,False,278
102,17,5,m,77,2021-11-23T15:05:09.357Z,gomot_a.0250.eq.wav,0,4,521.79790965,-0.21993605,False,278
102,17,5,m,77,2021-11-23T15:05:09.357Z,gomot_a.0250.eq.wav,0,5,704.34790983,-0.65771544,False,278
102,17,5,m,77,2021-11-23T15:05:09.357Z,gomot_a.0250.eq.wav,0,6,914.17288101,-4.01577675,False,278
102,17,5,m,77,2021-11-23T15:05:09.357Z,gomot_a.0250.eq.wav,0,7,1155.34800284,0.54061936,False,278
102,17,5,m,77,2021-11-23T15:05:09.357Z,gomot_a.0250.eq.wav,0,8,1432.55733147,-4.77579452,False,278
102,17,5,m,77,2021-11-23T15:05:09.357Z,gomot_a.0250.eq.wav,0,9,1751.18477235,-0.52816176,False,278
102,17,5,m,77,2021-11-23T15:05:09.357Z,gomot_a.0250.eq.wav,0,10,2117.41864548,3.53144378,False,278
102,17,5,m,77,2021-11-23T15:05:09.357Z,gomot_a.0250.eq.wav,0,11,2538.37187364,0.41057076,False,278
102,17,5,m,77,2021-11-23T15:05:09.357Z,gomot_a.0250.eq.wav,0,12,3022.22012828,-1.56681533,False,278
102,17,5,m,77,2021-11-23T15:05:09.357Z,gomot_a.0250.eq.wav,0,13,3578.36061576,2.81782751,False,278
102,17,5,m,77,2021-11-23T15:05:09.357Z,gomot_a.0250.eq.wav,0,14,4217.59458808,4.90931299,False,278
102,17,5,m,77,2021-11-23T15:05:09.357Z,gomot_a.0250.eq.wav,0,15,4952.33712269,3.84466552,False,278
102,17,5,m,77,2021-11-23T15:05:09.357Z,gomot_a.0250.eq.wav,0,16,5796.85824570,-3.45594948,False,278
102,17,5,m,77,2021-11-23T15:05:09.357Z,gomot_a.0250.eq.wav,0,17,6767.56008152,4.44547492,False,278
102,17,5,m,77,2021-11-23T15:05:09.357Z,gomot_a.0250.eq.wav,0,18,7883.29541175,-2.86891500,False,278
102,17,5,m,77,2021-11-23T15:05:09.357Z,gomot_a.0250.eq.wav,0,19,9165.73383021,-4.42596700,False,278
102,17,5,m,77,2021-11-23T15:05:09.357Z,gomot_a.0250.eq.wav,0,20,10639.78260555,2.41081851,False,278
102,17,5,m,77,2021-11-23T15:05:09.357Z,gomot_a.0250.eq.wav,0,21,12334.07042541,-0.05159425,False,278
102,17,5,m,77,2021-11-23T15:05:09.357Z,gomot_a.0250.eq.wav,0,22,14281.50341712,4.87813180,False,278
102,17,5,m,77,2021-11-23T15:05:09.357Z,gomot_a.0250.eq.wav,0,23,16519.90424416,1.77369717,False,278
102,17,5,m,77,2021-11-23T15:05:09.357Z,gomot_a.0250.eq.wav,0,24,19092.74669051,-3.09628195,False,278
102,17,5,m,77,2021-11-23T15:05:09.357Z,gomot_a.0250.eq.wav,0,25,22050.00000000,0.78856845,False,278
102,17,5,m,77,2021-11-23T15:05:09.357Z,gomot_a.0477.eq.wav,1,0,0.00000000,-1.74466437,True,278
102,17,5,m,77,2021-11-23T15:05:09.357Z,gomot_a.0477.eq.wav,1,1,104.58767290,4.72860271,True,278
102,17,5,m,77,2021-11-23T15:05:09.357Z,gomot_a.0477.eq.wav,1,2,224.80189054,3.62268841,True,278
102,17,5,m,77,2021-11-23T15:05:09.357Z,gomot_a.0477.eq.wav,1,3,362.97743001,0.36125372,True,278
102,17,5,m,77,2021-11-23T15:05:09.357Z,gomot_a.0477.eq.wav,1,4,521.79790965,-2.60793689,True,278
102,17,5,m,77,2021-11-23T15:05:09.357Z,gomot_a.0477.eq.wav,1,5,704.34790983,2.88110413,True,278
102,17,5,m,77,2021-11-23T15:05:09.357Z,gomot_a.0477.eq.wav,1,6,914.17288101,1.97326246,True,278
102,17,5,m,77,2021-11-23T15:05:09.357Z,gomot_a.0477.eq.wav,1,7,1155.34800284,1.16178377,True,278
102,17,5,m,77,2021-11-23T15:05:09.357Z,gomot_a.0477.eq.wav,1,8,1432.55733147,-4.67887738,True,278
102,17,5,m,77,2021-11-23T15:05:09.357Z,gomot_a.0477.eq.wav,1,9,1751.18477235,0.61884482,True,278
102,17,5,m,77,2021-11-23T15:05:09.357Z,gomot_a.0477.eq.wav,1,10,2117.41864548,-1.74270460,True,278
102,17,5,m,77,2021-11-23T15:05:09.357Z,gomot_a.0477.eq.wav,1,11,2538.37187364,-4.20871610,True,278
102,17,5,m,77,2021-11-23T15:05:09.357Z,gomot_a.0477.eq.wav,1,12,3022.22012828,-1.04714922,True,278
102,17,5,m,77,2021-11-23T15:05:09.357Z,gomot_a.0477.eq.wav,1,13,3578.36061576,-1.25010422,True,278
102,17,5,m,77,2021-11-23T15:05:09.357Z,gomot_a.0477.eq.wav,1,14,4217.59458808,-2.93357715,True,278
102,17,5,m,77,2021-11-23T15:05:09.357Z,gomot_a.0477.eq.wav,1,15,4952.33712269,-3.46710814,True,278
102,17,5,m,77,2021-11-23T15:05:09.357Z,gomot_a.0477.eq.wav,1,16,5796.85824570,-4.28209136,True,278
102,17,5,m,77,2021-11-23T15:05:09.357Z,gomot_a.0477.eq.wav,1,17,6767.56008152,-3.73348297,True,278
102,17,5,m,77,2021-11-23T15:05:09.357Z,gomot_a.0477.eq.wav,1,18,7883.29541175,-4.43393050,True,278
102,17,5,m,77,2021-11-23T15:05:09.357Z,gomot_a.0477.eq.wav,1,19,9165.73383021,-1.62386035,True,278
102,17,5,m,77,2021-11-23T15:05:09.357Z,gomot_a.0477.eq.wav,1,20,10639.78260555,-3.26885501,True,278
102,17,5,m,77,2021-11-23T15:05:09.357Z,gomot_a.0477.eq.wav,1,21,12334.07042541,-0.48539889,True,278
102,17,5,m,77,2021-11-23T15:05:09.357Z,gomot_a.0477.eq.wav,1,22,14281.50341712,0.61832864,True,278
102,17,5,m,77,2021-11-23T15:05:09.357Z,gomot_a.0477.eq.wav,1,23,16519.90424416,-2.54404102,True,278
102,17,5,m,77,2021-11-23T15:05:09.357Z,gomot_a.0477.eq.wav,1,24,19092.74669051,1.29730020,True,278
102,17,5,m,77,2021-11-23T15:05:09.357Z,gomot_a.0477.eq.wav,1,25,22050.00000000,-3.06441457,True,278
