subj,trial,block,sex,age,date,stim,stim_order,param_index,filter_freq,filter_gain,response,rt
102,0,0,lkj,12,2021-11-29T14:08:55.133Z,gomot_a.0028.eq.wav,0,0,0.00000000,3.00630203,True,1248
102,0,0,lkj,12,2021-11-29T14:08:55.133Z,gomot_a.0028.eq.wav,0,1,104.58767290,3.08888470,True,1248
102,0,0,lkj,12,2021-11-29T14:08:55.133Z,gomot_a.0028.eq.wav,0,2,224.80189054,-4.83334342,True,1248
102,0,0,lkj,12,2021-11-29T14:08:55.133Z,gomot_a.0028.eq.wav,0,3,362.97743001,-3.92120562,True,1248
102,0,0,lkj,12,2021-11-29T14:08:55.133Z,gomot_a.0028.eq.wav,0,4,521.79790965,-1.91522753,True,1248
102,0,0,lkj,12,2021-11-29T14:08:55.133Z,gomot_a.0028.eq.wav,0,5,704.34790983,-3.10239705,True,1248
102,0,0,lkj,12,2021-11-29T14:08:55.133Z,gomot_a.0028.eq.wav,0,6,914.17288101,-4.13571253,True,1248
102,0,0,lkj,12,2021-11-29T14:08:55.133Z,gomot_a.0028.eq.wav,0,7,1155.34800284,-4.61315651,True,1248
102,0,0,lkj,12,2021-11-29T14:08:55.133Z,gomot_a.0028.eq.wav,0,8,1432.55733147,0.03743672,True,1248
102,0,0,lkj,12,2021-11-29T14:08:55.133Z,gomot_a.0028.eq.wav,0,9,1751.18477235,2.44695048,True,1248
102,0,0,lkj,12,2021-11-29T14:08:55.133Z,gomot_a.0028.eq.wav,0,10,2117.41864548,-0.25489232,True,1248
102,0,0,lkj,12,2021-11-29T14:08:55.133Z,gomot_a.0028.eq.wav,0,11,2538.37187364,4.96739309,True,1248
102,0,0,lkj,12,2021-11-29T14:08:55.133Z,gomot_a.0028.eq.wav,0,12,3022.22012828,0.24244218,True,1248
102,0,0,lkj,12,2021-11-29T14:08:55.133Z,gomot_a.0028.eq.wav,0,13,3578.36061576,-1.17605160,True,1248
102,0,0,lkj,12,2021-11-29T14:08:55.133Z,gomot_a.0028.eq.wav,0,14,4217.59458808,-0.13578702,True,1248
102,0,0,lkj,12,2021-11-29T14:08:55.133Z,gomot_a.0028.eq.wav,0,15,4952.33712269,1.08374590,True,1248
102,0,0,lkj,12,2021-11-29T14:08:55.133Z,gomot_a.0028.eq.wav,0,16,5796.85824570,-4.58738907,True,1248
102,0,0,lkj,12,2021-11-29T14:08:55.133Z,gomot_a.0028.eq.wav,0,17,6767.56008152,-3.67852556,True,1248
102,0,0,lkj,12,2021-11-29T14:08:55.133Z,gomot_a.0028.eq.wav,0,18,7883.29541175,-4.57005697,True,1248
102,0,0,lkj,12,2021-11-29T14:08:55.133Z,gomot_a.0028.eq.wav,0,19,9165.73383021,-1.27709748,True,1248
102,0,0,lkj,12,2021-11-29T14:08:55.133Z,gomot_a.0028.eq.wav,0,20,10639.78260555,-0.16878431,True,1248
102,0,0,lkj,12,2021-11-29T14:08:55.133Z,gomot_a.0028.eq.wav,0,21,12334.07042541,0.91517687,True,1248
102,0,0,lkj,12,2021-11-29T14:08:55.133Z,gomot_a.0028.eq.wav,0,22,14281.50341712,-2.92717973,True,1248
102,0,0,lkj,12,2021-11-29T14:08:55.133Z,gomot_a.0028.eq.wav,0,23,16519.90424416,2.14014224,True,1248
102,0,0,lkj,12,2021-11-29T14:08:55.133Z,gomot_a.0028.eq.wav,0,24,19092.74669051,3.91407748,True,1248
102,0,0,lkj,12,2021-11-29T14:08:55.133Z,gomot_a.0028.eq.wav,0,25,22050.00000000,-2.95445368,True,1248
102,0,0,lkj,12,2021-11-29T14:08:55.133Z,gomot_a.0094.eq.wav,1,0,0.00000000,-1.42808655,False,1248
102,0,0,lkj,12,2021-11-29T14:08:55.133Z,gomot_a.0094.eq.wav,1,1,104.58767290,-2.60130476,False,1248
102,0,0,lkj,12,2021-11-29T14:08:55.133Z,gomot_a.0094.eq.wav,1,2,224.80189054,4.10426027,False,1248
102,0,0,lkj,12,2021-11-29T14:08:55.133Z,gomot_a.0094.eq.wav,1,3,362.97743001,4.17089311,False,1248
102,0,0,lkj,12,2021-11-29T14:08:55.133Z,gomot_a.0094.eq.wav,1,4,521.79790965,-2.02244457,False,1248
102,0,0,lkj,12,2021-11-29T14:08:55.133Z,gomot_a.0094.eq.wav,1,5,704.34790983,-0.66373635,False,1248
102,0,0,lkj,12,2021-11-29T14:08:55.133Z,gomot_a.0094.eq.wav,1,6,914.17288101,2.68428112,False,1248
102,0,0,lkj,12,2021-11-29T14:08:55.133Z,gomot_a.0094.eq.wav,1,7,1155.34800284,0.22062072,False,1248
102,0,0,lkj,12,2021-11-29T14:08:55.133Z,gomot_a.0094.eq.wav,1,8,1432.55733147,1.90632154,False,1248
102,0,0,lkj,12,2021-11-29T14:08:55.133Z,gomot_a.0094.eq.wav,1,9,1751.18477235,1.14653866,False,1248
102,0,0,lkj,12,2021-11-29T14:08:55.133Z,gomot_a.0094.eq.wav,1,10,2117.41864548,-2.98902005,False,1248
102,0,0,lkj,12,2021-11-29T14:08:55.133Z,gomot_a.0094.eq.wav,1,11,2538.37187364,-2.02442750,False,1248
102,0,0,lkj,12,2021-11-29T14:08:55.133Z,gomot_a.0094.eq.wav,1,12,3022.22012828,2.94384385,False,1248
102,0,0,lkj,12,2021-11-29T14:08:55.133Z,gomot_a.0094.eq.wav,1,13,3578.36061576,-0.82449455,False,1248
102,0,0,lkj,12,2021-11-29T14:08:55.133Z,gomot_a.0094.eq.wav,1,14,4217.59458808,3.02096575,False,1248
102,0,0,lkj,12,2021-11-29T14:08:55.133Z,gomot_a.0094.eq.wav,1,15,4952.33712269,2.40109104,False,1248
102,0,0,lkj,12,2021-11-29T14:08:55.133Z,gomot_a.0094.eq.wav,1,16,5796.85824570,2.33373790,False,1248
102,0,0,lkj,12,2021-11-29T14:08:55.133Z,gomot_a.0094.eq.wav,1,17,6767.56008152,-0.52670809,False,1248
102,0,0,lkj,12,2021-11-29T14:08:55.133Z,gomot_a.0094.eq.wav,1,18,7883.29541175,1.88026256,False,1248
102,0,0,lkj,12,2021-11-29T14:08:55.133Z,gomot_a.0094.eq.wav,1,19,9165.73383021,-2.46685339,False,1248
102,0,0,lkj,12,2021-11-29T14:08:55.133Z,gomot_a.0094.eq.wav,1,20,10639.78260555,2.86061878,False,1248
102,0,0,lkj,12,2021-11-29T14:08:55.133Z,gomot_a.0094.eq.wav,1,21,12334.07042541,-0.15905094,False,1248
102,0,0,lkj,12,2021-11-29T14:08:55.133Z,gomot_a.0094.eq.wav,1,22,14281.50341712,-3.77484482,False,1248
102,0,0,lkj,12,2021-11-29T14:08:55.133Z,gomot_a.0094.eq.wav,1,23,16519.90424416,-4.58751173,False,1248
102,0,0,lkj,12,2021-11-29T14:08:55.133Z,gomot_a.0094.eq.wav,1,24,19092.74669051,-3.47114219,False,1248
102,0,0,lkj,12,2021-11-29T14:08:55.133Z,gomot_a.0094.eq.wav,1,25,22050.00000000,1.38501533,False,1248
102,1,0,lkj,12,2021-11-29T14:08:55.133Z,gomot_a.0068.eq.wav,0,0,0.00000000,-2.74498153,True,642
102,1,0,lkj,12,2021-11-29T14:08:55.133Z,gomot_a.0068.eq.wav,0,1,104.58767290,-1.19843649,True,642
102,1,0,lkj,12,2021-11-29T14:08:55.133Z,gomot_a.0068.eq.wav,0,2,224.80189054,-4.77525165,True,642
102,1,0,lkj,12,2021-11-29T14:08:55.133Z,gomot_a.0068.eq.wav,0,3,362.97743001,4.23970942,True,642
102,1,0,lkj,12,2021-11-29T14:08:55.133Z,gomot_a.0068.eq.wav,0,4,521.79790965,2.94671015,True,642
102,1,0,lkj,12,2021-11-29T14:08:55.133Z,gomot_a.0068.eq.wav,0,5,704.34790983,0.13106804,True,642
102,1,0,lkj,12,2021-11-29T14:08:55.133Z,gomot_a.0068.eq.wav,0,6,914.17288101,2.91408920,True,642
102,1,0,lkj,12,2021-11-29T14:08:55.133Z,gomot_a.0068.eq.wav,0,7,1155.34800284,2.94453135,True,642
102,1,0,lkj,12,2021-11-29T14:08:55.133Z,gomot_a.0068.eq.wav,0,8,1432.55733147,1.23029286,True,642
102,1,0,lkj,12,2021-11-29T14:08:55.133Z,gomot_a.0068.eq.wav,0,9,1751.18477235,-0.94350158,True,642
102,1,0,lkj,12,2021-11-29T14:08:55.133Z,gomot_a.0068.eq.wav,0,10,2117.41864548,-0.12262200,True,642
102,1,0,lkj,12,2021-11-29T14:08:55.133Z,gomot_a.0068.eq.wav,0,11,2538.37187364,0.28053298,True,642
102,1,0,lkj,12,2021-11-29T14:08:55.133Z,gomot_a.0068.eq.wav,0,12,3022.22012828,-0.35853131,True,642
102,1,0,lkj,12,2021-11-29T14:08:55.133Z,gomot_a.0068.eq.wav,0,13,3578.36061576,-2.23411280,True,642
102,1,0,lkj,12,2021-11-29T14:08:55.133Z,gomot_a.0068.eq.wav,0,14,4217.59458808,0.57509411,True,642
102,1,0,lkj,12,2021-11-29T14:08:55.133Z,gomot_a.0068.eq.wav,0,15,4952.33712269,-0.71144747,True,642
102,1,0,lkj,12,2021-11-29T14:08:55.133Z,gomot_a.0068.eq.wav,0,16,5796.85824570,-1.25644044,True,642
102,1,0,lkj,12,2021-11-29T14:08:55.133Z,gomot_a.0068.eq.wav,0,17,6767.56008152,4.19172280,True,642
102,1,0,lkj,12,2021-11-29T14:08:55.133Z,gomot_a.0068.eq.wav,0,18,7883.29541175,-4.05598917,True,642
102,1,0,lkj,12,2021-11-29T14:08:55.133Z,gomot_a.0068.eq.wav,0,19,9165.73383021,2.66338322,True,642
102,1,0,lkj,12,2021-11-29T14:08:55.133Z,gomot_a.0068.eq.wav,0,20,10639.78260555,-4.19822717,True,642
102,1,0,lkj,12,2021-11-29T14:08:55.133Z,gomot_a.0068.eq.wav,0,21,12334.07042541,3.53687853,True,642
102,1,0,lkj,12,2021-11-29T14:08:55.133Z,gomot_a.0068.eq.wav,0,22,14281.50341712,1.70123015,True,642
102,1,0,lkj,12,2021-11-29T14:08:55.133Z,gomot_a.0068.eq.wav,0,23,16519.90424416,1.42643253,True,642
102,1,0,lkj,12,2021-11-29T14:08:55.133Z,gomot_a.0068.eq.wav,0,24,19092.74669051,3.78469126,True,642
102,1,0,lkj,12,2021-11-29T14:08:55.133Z,gomot_a.0068.eq.wav,0,25,22050.00000000,2.89122132,True,642
102,1,0,lkj,12,2021-11-29T14:08:55.133Z,gomot_a.0072.eq.wav,1,0,0.00000000,3.99415809,False,642
102,1,0,lkj,12,2021-11-29T14:08:55.133Z,gomot_a.0072.eq.wav,1,1,104.58767290,-3.21050359,False,642
102,1,0,lkj,12,2021-11-29T14:08:55.133Z,gomot_a.0072.eq.wav,1,2,224.80189054,-3.03992348,False,642
102,1,0,lkj,12,2021-11-29T14:08:55.133Z,gomot_a.0072.eq.wav,1,3,362.97743001,0.36817795,False,642
102,1,0,lkj,12,2021-11-29T14:08:55.133Z,gomot_a.0072.eq.wav,1,4,521.79790965,4.07307411,False,642
102,1,0,lkj,12,2021-11-29T14:08:55.133Z,gomot_a.0072.eq.wav,1,5,704.34790983,0.33584893,False,642
102,1,0,lkj,12,2021-11-29T14:08:55.133Z,gomot_a.0072.eq.wav,1,6,914.17288101,4.35949325,False,642
102,1,0,lkj,12,2021-11-29T14:08:55.133Z,gomot_a.0072.eq.wav,1,7,1155.34800284,4.56746181,False,642
102,1,0,lkj,12,2021-11-29T14:08:55.133Z,gomot_a.0072.eq.wav,1,8,1432.55733147,0.77849598,False,642
102,1,0,lkj,12,2021-11-29T14:08:55.133Z,gomot_a.0072.eq.wav,1,9,1751.18477235,4.06538471,False,642
102,1,0,lkj,12,2021-11-29T14:08:55.133Z,gomot_a.0072.eq.wav,1,10,2117.41864548,1.13162155,False,642
102,1,0,lkj,12,2021-11-29T14:08:55.133Z,gomot_a.0072.eq.wav,1,11,2538.37187364,1.32336430,False,642
102,1,0,lkj,12,2021-11-29T14:08:55.133Z,gomot_a.0072.eq.wav,1,12,3022.22012828,0.04360863,False,642
102,1,0,lkj,12,2021-11-29T14:08:55.133Z,gomot_a.0072.eq.wav,1,13,3578.36061576,4.94141656,False,642
102,1,0,lkj,12,2021-11-29T14:08:55.133Z,gomot_a.0072.eq.wav,1,14,4217.59458808,-3.53473601,False,642
102,1,0,lkj,12,2021-11-29T14:08:55.133Z,gomot_a.0072.eq.wav,1,15,4952.33712269,-1.28350177,False,642
102,1,0,lkj,12,2021-11-29T14:08:55.133Z,gomot_a.0072.eq.wav,1,16,5796.85824570,3.19949007,False,642
102,1,0,lkj,12,2021-11-29T14:08:55.133Z,gomot_a.0072.eq.wav,1,17,6767.56008152,-2.27547623,False,642
102,1,0,lkj,12,2021-11-29T14:08:55.133Z,gomot_a.0072.eq.wav,1,18,7883.29541175,3.53500506,False,642
102,1,0,lkj,12,2021-11-29T14:08:55.133Z,gomot_a.0072.eq.wav,1,19,9165.73383021,1.69863388,False,642
102,1,0,lkj,12,2021-11-29T14:08:55.133Z,gomot_a.0072.eq.wav,1,20,10639.78260555,0.92659817,False,642
102,1,0,lkj,12,2021-11-29T14:08:55.133Z,gomot_a.0072.eq.wav,1,21,12334.07042541,2.61805607,False,642
102,1,0,lkj,12,2021-11-29T14:08:55.133Z,gomot_a.0072.eq.wav,1,22,14281.50341712,4.48177939,False,642
102,1,0,lkj,12,2021-11-29T14:08:55.133Z,gomot_a.0072.eq.wav,1,23,16519.90424416,-0.40791893,False,642
102,1,0,lkj,12,2021-11-29T14:08:55.133Z,gomot_a.0072.eq.wav,1,24,19092.74669051,0.62105395,False,642
102,1,0,lkj,12,2021-11-29T14:08:55.133Z,gomot_a.0072.eq.wav,1,25,22050.00000000,4.51082708,False,642
102,2,0,lkj,12,2021-11-29T14:08:55.133Z,gomot_a.0029.eq.wav,0,0,0.00000000,1.21816501,True,285
102,2,0,lkj,12,2021-11-29T14:08:55.133Z,gomot_a.0029.eq.wav,0,1,104.58767290,1.08267020,True,285
102,2,0,lkj,12,2021-11-29T14:08:55.133Z,gomot_a.0029.eq.wav,0,2,224.80189054,1.28772206,True,285
102,2,0,lkj,12,2021-11-29T14:08:55.133Z,gomot_a.0029.eq.wav,0,3,362.97743001,1.40729758,True,285
102,2,0,lkj,12,2021-11-29T14:08:55.133Z,gomot_a.0029.eq.wav,0,4,521.79790965,-3.20043051,True,285
102,2,0,lkj,12,2021-11-29T14:08:55.133Z,gomot_a.0029.eq.wav,0,5,704.34790983,2.79748982,True,285
102,2,0,lkj,12,2021-11-29T14:08:55.133Z,gomot_a.0029.eq.wav,0,6,914.17288101,3.52226146,True,285
102,2,0,lkj,12,2021-11-29T14:08:55.133Z,gomot_a.0029.eq.wav,0,7,1155.34800284,-2.16834895,True,285
102,2,0,lkj,12,2021-11-29T14:08:55.133Z,gomot_a.0029.eq.wav,0,8,1432.55733147,-3.82348878,True,285
102,2,0,lkj,12,2021-11-29T14:08:55.133Z,gomot_a.0029.eq.wav,0,9,1751.18477235,2.53152470,True,285
102,2,0,lkj,12,2021-11-29T14:08:55.133Z,gomot_a.0029.eq.wav,0,10,2117.41864548,4.42532900,True,285
102,2,0,lkj,12,2021-11-29T14:08:55.133Z,gomot_a.0029.eq.wav,0,11,2538.37187364,1.87416383,True,285
102,2,0,lkj,12,2021-11-29T14:08:55.133Z,gomot_a.0029.eq.wav,0,12,3022.22012828,2.78695143,True,285
102,2,0,lkj,12,2021-11-29T14:08:55.133Z,gomot_a.0029.eq.wav,0,13,3578.36061576,-1.62046464,True,285
102,2,0,lkj,12,2021-11-29T14:08:55.133Z,gomot_a.0029.eq.wav,0,14,4217.59458808,0.39865427,True,285
102,2,0,lkj,12,2021-11-29T14:08:55.133Z,gomot_a.0029.eq.wav,0,15,4952.33712269,-0.98513032,True,285
102,2,0,lkj,12,2021-11-29T14:08:55.133Z,gomot_a.0029.eq.wav,0,16,5796.85824570,3.48046181,True,285
102,2,0,lkj,12,2021-11-29T14:08:55.133Z,gomot_a.0029.eq.wav,0,17,6767.56008152,0.93900639,True,285
102,2,0,lkj,12,2021-11-29T14:08:55.133Z,gomot_a.0029.eq.wav,0,18,7883.29541175,-3.18346998,True,285
102,2,0,lkj,12,2021-11-29T14:08:55.133Z,gomot_a.0029.eq.wav,0,19,9165.73383021,4.38247035,True,285
102,2,0,lkj,12,2021-11-29T14:08:55.133Z,gomot_a.0029.eq.wav,0,20,10639.78260555,4.15778158,True,285
102,2,0,lkj,12,2021-11-29T14:08:55.133Z,gomot_a.0029.eq.wav,0,21,12334.07042541,3.11035079,True,285
102,2,0,lkj,12,2021-11-29T14:08:55.133Z,gomot_a.0029.eq.wav,0,22,14281.50341712,4.72179113,True,285
102,2,0,lkj,12,2021-11-29T14:08:55.133Z,gomot_a.0029.eq.wav,0,23,16519.90424416,1.62414786,True,285
102,2,0,lkj,12,2021-11-29T14:08:55.133Z,gomot_a.0029.eq.wav,0,24,19092.74669051,-2.19736742,True,285
102,2,0,lkj,12,2021-11-29T14:08:55.133Z,gomot_a.0029.eq.wav,0,25,22050.00000000,-2.62167848,True,285
102,2,0,lkj,12,2021-11-29T14:08:55.133Z,gomot_a.0077.eq.wav,1,0,0.00000000,-3.90890457,False,285
102,2,0,lkj,12,2021-11-29T14:08:55.133Z,gomot_a.0077.eq.wav,1,1,104.58767290,3.81061107,False,285
102,2,0,lkj,12,2021-11-29T14:08:55.133Z,gomot_a.0077.eq.wav,1,2,224.80189054,3.65367482,False,285
102,2,0,lkj,12,2021-11-29T14:08:55.133Z,gomot_a.0077.eq.wav,1,3,362.97743001,-3.10800260,False,285
102,2,0,lkj,12,2021-11-29T14:08:55.133Z,gomot_a.0077.eq.wav,1,4,521.79790965,1.01198112,False,285
102,2,0,lkj,12,2021-11-29T14:08:55.133Z,gomot_a.0077.eq.wav,1,5,704.34790983,4.95669510,False,285
102,2,0,lkj,12,2021-11-29T14:08:55.133Z,gomot_a.0077.eq.wav,1,6,914.17288101,-0.91261939,False,285
102,2,0,lkj,12,2021-11-29T14:08:55.133Z,gomot_a.0077.eq.wav,1,7,1155.34800284,-2.42179723,False,285
102,2,0,lkj,12,2021-11-29T14:08:55.133Z,gomot_a.0077.eq.wav,1,8,1432.55733147,-0.64210145,False,285
102,2,0,lkj,12,2021-11-29T14:08:55.133Z,gomot_a.0077.eq.wav,1,9,1751.18477235,4.55500072,False,285
102,2,0,lkj,12,2021-11-29T14:08:55.133Z,gomot_a.0077.eq.wav,1,10,2117.41864548,2.13774045,False,285
102,2,0,lkj,12,2021-11-29T14:08:55.133Z,gomot_a.0077.eq.wav,1,11,2538.37187364,-0.97481099,False,285
102,2,0,lkj,12,2021-11-29T14:08:55.133Z,gomot_a.0077.eq.wav,1,12,3022.22012828,-0.25527135,False,285
102,2,0,lkj,12,2021-11-29T14:08:55.133Z,gomot_a.0077.eq.wav,1,13,3578.36061576,3.16915424,False,285
102,2,0,lkj,12,2021-11-29T14:08:55.133Z,gomot_a.0077.eq.wav,1,14,4217.59458808,-4.14312219,False,285
102,2,0,lkj,12,2021-11-29T14:08:55.133Z,gomot_a.0077.eq.wav,1,15,4952.33712269,-4.73745316,False,285
102,2,0,lkj,12,2021-11-29T14:08:55.133Z,gomot_a.0077.eq.wav,1,16,5796.85824570,-0.70229217,False,285
102,2,0,lkj,12,2021-11-29T14:08:55.133Z,gomot_a.0077.eq.wav,1,17,6767.56008152,-2.76618068,False,285
102,2,0,lkj,12,2021-11-29T14:08:55.133Z,gomot_a.0077.eq.wav,1,18,7883.29541175,-4.10503971,False,285
102,2,0,lkj,12,2021-11-29T14:08:55.133Z,gomot_a.0077.eq.wav,1,19,9165.73383021,-3.83347624,False,285
102,2,0,lkj,12,2021-11-29T14:08:55.133Z,gomot_a.0077.eq.wav,1,20,10639.78260555,-4.21854730,False,285
102,2,0,lkj,12,2021-11-29T14:08:55.133Z,gomot_a.0077.eq.wav,1,21,12334.07042541,1.02990784,False,285
102,2,0,lkj,12,2021-11-29T14:08:55.133Z,gomot_a.0077.eq.wav,1,22,14281.50341712,-0.59495966,False,285
102,2,0,lkj,12,2021-11-29T14:08:55.133Z,gomot_a.0077.eq.wav,1,23,16519.90424416,1.20413343,False,285
102,2,0,lkj,12,2021-11-29T14:08:55.133Z,gomot_a.0077.eq.wav,1,24,19092.74669051,-2.82697252,False,285
102,2,0,lkj,12,2021-11-29T14:08:55.133Z,gomot_a.0077.eq.wav,1,25,22050.00000000,2.26793071,False,285
102,3,1,lkj,12,2021-11-29T14:08:55.133Z,gomot_a.0014.eq.wav,0,0,0.00000000,-2.34037570,True,239
102,3,1,lkj,12,2021-11-29T14:08:55.133Z,gomot_a.0014.eq.wav,0,1,104.58767290,4.98806250,True,239
102,3,1,lkj,12,2021-11-29T14:08:55.133Z,gomot_a.0014.eq.wav,0,2,224.80189054,-3.74871725,True,239
102,3,1,lkj,12,2021-11-29T14:08:55.133Z,gomot_a.0014.eq.wav,0,3,362.97743001,0.75287904,True,239
102,3,1,lkj,12,2021-11-29T14:08:55.133Z,gomot_a.0014.eq.wav,0,4,521.79790965,0.48929820,True,239
102,3,1,lkj,12,2021-11-29T14:08:55.133Z,gomot_a.0014.eq.wav,0,5,704.34790983,-0.16334447,True,239
102,3,1,lkj,12,2021-11-29T14:08:55.133Z,gomot_a.0014.eq.wav,0,6,914.17288101,2.26119480,True,239
102,3,1,lkj,12,2021-11-29T14:08:55.133Z,gomot_a.0014.eq.wav,0,7,1155.34800284,4.74075250,True,239
102,3,1,lkj,12,2021-11-29T14:08:55.133Z,gomot_a.0014.eq.wav,0,8,1432.55733147,3.19797381,True,239
102,3,1,lkj,12,2021-11-29T14:08:55.133Z,gomot_a.0014.eq.wav,0,9,1751.18477235,0.78873227,True,239
102,3,1,lkj,12,2021-11-29T14:08:55.133Z,gomot_a.0014.eq.wav,0,10,2117.41864548,-1.01208948,True,239
102,3,1,lkj,12,2021-11-29T14:08:55.133Z,gomot_a.0014.eq.wav,0,11,2538.37187364,-0.35758749,True,239
102,3,1,lkj,12,2021-11-29T14:08:55.133Z,gomot_a.0014.eq.wav,0,12,3022.22012828,-2.66828481,True,239
102,3,1,lkj,12,2021-11-29T14:08:55.133Z,gomot_a.0014.eq.wav,0,13,3578.36061576,0.54041368,True,239
102,3,1,lkj,12,2021-11-29T14:08:55.133Z,gomot_a.0014.eq.wav,0,14,4217.59458808,1.06190200,True,239
102,3,1,lkj,12,2021-11-29T14:08:55.133Z,gomot_a.0014.eq.wav,0,15,4952.33712269,3.94768985,True,239
102,3,1,lkj,12,2021-11-29T14:08:55.133Z,gomot_a.0014.eq.wav,0,16,5796.85824570,4.87768080,True,239
102,3,1,lkj,12,2021-11-29T14:08:55.133Z,gomot_a.0014.eq.wav,0,17,6767.56008152,3.41737702,True,239
102,3,1,lkj,12,2021-11-29T14:08:55.133Z,gomot_a.0014.eq.wav,0,18,7883.29541175,1.01658447,True,239
102,3,1,lkj,12,2021-11-29T14:08:55.133Z,gomot_a.0014.eq.wav,0,19,9165.73383021,-0.04927484,True,239
102,3,1,lkj,12,2021-11-29T14:08:55.133Z,gomot_a.0014.eq.wav,0,20,10639.78260555,-1.11159762,True,239
102,3,1,lkj,12,2021-11-29T14:08:55.133Z,gomot_a.0014.eq.wav,0,21,12334.07042541,-2.39319177,True,239
102,3,1,lkj,12,2021-11-29T14:08:55.133Z,gomot_a.0014.eq.wav,0,22,14281.50341712,2.92813613,True,239
102,3,1,lkj,12,2021-11-29T14:08:55.133Z,gomot_a.0014.eq.wav,0,23,16519.90424416,-1.53954881,True,239
102,3,1,lkj,12,2021-11-29T14:08:55.133Z,gomot_a.0014.eq.wav,0,24,19092.74669051,3.15470962,True,239
102,3,1,lkj,12,2021-11-29T14:08:55.133Z,gomot_a.0014.eq.wav,0,25,22050.00000000,-4.54208364,True,239
102,3,1,lkj,12,2021-11-29T14:08:55.133Z,gomot_a.0073.eq.wav,1,0,0.00000000,-3.70274805,False,239
102,3,1,lkj,12,2021-11-29T14:08:55.133Z,gomot_a.0073.eq.wav,1,1,104.58767290,0.58686430,False,239
102,3,1,lkj,12,2021-11-29T14:08:55.133Z,gomot_a.0073.eq.wav,1,2,224.80189054,1.64263069,False,239
102,3,1,lkj,12,2021-11-29T14:08:55.133Z,gomot_a.0073.eq.wav,1,3,362.97743001,-0.05832789,False,239
102,3,1,lkj,12,2021-11-29T14:08:55.133Z,gomot_a.0073.eq.wav,1,4,521.79790965,-1.41682181,False,239
102,3,1,lkj,12,2021-11-29T14:08:55.133Z,gomot_a.0073.eq.wav,1,5,704.34790983,1.80987332,False,239
102,3,1,lkj,12,2021-11-29T14:08:55.133Z,gomot_a.0073.eq.wav,1,6,914.17288101,2.20518022,False,239
102,3,1,lkj,12,2021-11-29T14:08:55.133Z,gomot_a.0073.eq.wav,1,7,1155.34800284,2.60464897,False,239
102,3,1,lkj,12,2021-11-29T14:08:55.133Z,gomot_a.0073.eq.wav,1,8,1432.55733147,-0.16079965,False,239
102,3,1,lkj,12,2021-11-29T14:08:55.133Z,gomot_a.0073.eq.wav,1,9,1751.18477235,-1.51022837,False,239
102,3,1,lkj,12,2021-11-29T14:08:55.133Z,gomot_a.0073.eq.wav,1,10,2117.41864548,-0.65540311,False,239
102,3,1,lkj,12,2021-11-29T14:08:55.133Z,gomot_a.0073.eq.wav,1,11,2538.37187364,-4.52188033,False,239
102,3,1,lkj,12,2021-11-29T14:08:55.133Z,gomot_a.0073.eq.wav,1,12,3022.22012828,2.16598687,False,239
102,3,1,lkj,12,2021-11-29T14:08:55.133Z,gomot_a.0073.eq.wav,1,13,3578.36061576,3.21069131,False,239
102,3,1,lkj,12,2021-11-29T14:08:55.133Z,gomot_a.0073.eq.wav,1,14,4217.59458808,-3.70415772,False,239
102,3,1,lkj,12,2021-11-29T14:08:55.133Z,gomot_a.0073.eq.wav,1,15,4952.33712269,-1.76509823,False,239
102,3,1,lkj,12,2021-11-29T14:08:55.133Z,gomot_a.0073.eq.wav,1,16,5796.85824570,-2.88966271,False,239
102,3,1,lkj,12,2021-11-29T14:08:55.133Z,gomot_a.0073.eq.wav,1,17,6767.56008152,1.64277836,False,239
102,3,1,lkj,12,2021-11-29T14:08:55.133Z,gomot_a.0073.eq.wav,1,18,7883.29541175,2.04188923,False,239
102,3,1,lkj,12,2021-11-29T14:08:55.133Z,gomot_a.0073.eq.wav,1,19,9165.73383021,-3.49192457,False,239
102,3,1,lkj,12,2021-11-29T14:08:55.133Z,gomot_a.0073.eq.wav,1,20,10639.78260555,-2.68561067,False,239
102,3,1,lkj,12,2021-11-29T14:08:55.133Z,gomot_a.0073.eq.wav,1,21,12334.07042541,-4.02711132,False,239
102,3,1,lkj,12,2021-11-29T14:08:55.133Z,gomot_a.0073.eq.wav,1,22,14281.50341712,0.48848061,False,239
102,3,1,lkj,12,2021-11-29T14:08:55.133Z,gomot_a.0073.eq.wav,1,23,16519.90424416,0.73967821,False,239
102,3,1,lkj,12,2021-11-29T14:08:55.133Z,gomot_a.0073.eq.wav,1,24,19092.74669051,4.07498859,False,239
102,3,1,lkj,12,2021-11-29T14:08:55.133Z,gomot_a.0073.eq.wav,1,25,22050.00000000,0.75369588,False,239
102,4,1,lkj,12,2021-11-29T14:08:55.133Z,gomot_a.0052.eq.wav,0,0,0.00000000,2.39510125,True,127
102,4,1,lkj,12,2021-11-29T14:08:55.133Z,gomot_a.0052.eq.wav,0,1,104.58767290,4.43141783,True,127
102,4,1,lkj,12,2021-11-29T14:08:55.133Z,gomot_a.0052.eq.wav,0,2,224.80189054,0.26708297,True,127
102,4,1,lkj,12,2021-11-29T14:08:55.133Z,gomot_a.0052.eq.wav,0,3,362.97743001,-4.82359461,True,127
102,4,1,lkj,12,2021-11-29T14:08:55.133Z,gomot_a.0052.eq.wav,0,4,521.79790965,2.56545523,True,127
102,4,1,lkj,12,2021-11-29T14:08:55.133Z,gomot_a.0052.eq.wav,0,5,704.34790983,0.74677076,True,127
102,4,1,lkj,12,2021-11-29T14:08:55.133Z,gomot_a.0052.eq.wav,0,6,914.17288101,-2.46248448,True,127
102,4,1,lkj,12,2021-11-29T14:08:55.133Z,gomot_a.0052.eq.wav,0,7,1155.34800284,3.97940464,True,127
102,4,1,lkj,12,2021-11-29T14:08:55.133Z,gomot_a.0052.eq.wav,0,8,1432.55733147,3.62949804,True,127
102,4,1,lkj,12,2021-11-29T14:08:55.133Z,gomot_a.0052.eq.wav,0,9,1751.18477235,-2.49009785,True,127
102,4,1,lkj,12,2021-11-29T14:08:55.133Z,gomot_a.0052.eq.wav,0,10,2117.41864548,1.12536656,True,127
102,4,1,lkj,12,2021-11-29T14:08:55.133Z,gomot_a.0052.eq.wav,0,11,2538.37187364,-4.19537018,True,127
102,4,1,lkj,12,2021-11-29T14:08:55.133Z,gomot_a.0052.eq.wav,0,12,3022.22012828,4.26383142,True,127
102,4,1,lkj,12,2021-11-29T14:08:55.133Z,gomot_a.0052.eq.wav,0,13,3578.36061576,-1.35174155,True,127
102,4,1,lkj,12,2021-11-29T14:08:55.133Z,gomot_a.0052.eq.wav,0,14,4217.59458808,-4.91892667,True,127
102,4,1,lkj,12,2021-11-29T14:08:55.133Z,gomot_a.0052.eq.wav,0,15,4952.33712269,0.41493930,True,127
102,4,1,lkj,12,2021-11-29T14:08:55.133Z,gomot_a.0052.eq.wav,0,16,5796.85824570,-0.94410226,True,127
102,4,1,lkj,12,2021-11-29T14:08:55.133Z,gomot_a.0052.eq.wav,0,17,6767.56008152,-0.78114272,True,127
102,4,1,lkj,12,2021-11-29T14:08:55.133Z,gomot_a.0052.eq.wav,0,18,7883.29541175,3.04466339,True,127
102,4,1,lkj,12,2021-11-29T14:08:55.133Z,gomot_a.0052.eq.wav,0,19,9165.73383021,-2.60469018,True,127
102,4,1,lkj,12,2021-11-29T14:08:55.133Z,gomot_a.0052.eq.wav,0,20,10639.78260555,2.45414386,True,127
102,4,1,lkj,12,2021-11-29T14:08:55.133Z,gomot_a.0052.eq.wav,0,21,12334.07042541,3.90531987,True,127
102,4,1,lkj,12,2021-11-29T14:08:55.133Z,gomot_a.0052.eq.wav,0,22,14281.50341712,-4.91025776,True,127
102,4,1,lkj,12,2021-11-29T14:08:55.133Z,gomot_a.0052.eq.wav,0,23,16519.90424416,2.74726026,True,127
102,4,1,lkj,12,2021-11-29T14:08:55.133Z,gomot_a.0052.eq.wav,0,24,19092.74669051,1.38305819,True,127
102,4,1,lkj,12,2021-11-29T14:08:55.133Z,gomot_a.0052.eq.wav,0,25,22050.00000000,-3.53899842,True,127
102,4,1,lkj,12,2021-11-29T14:08:55.133Z,gomot_a.0016.eq.wav,1,0,0.00000000,4.58819139,False,127
102,4,1,lkj,12,2021-11-29T14:08:55.133Z,gomot_a.0016.eq.wav,1,1,104.58767290,0.38420905,False,127
102,4,1,lkj,12,2021-11-29T14:08:55.133Z,gomot_a.0016.eq.wav,1,2,224.80189054,3.31355169,False,127
102,4,1,lkj,12,2021-11-29T14:08:55.133Z,gomot_a.0016.eq.wav,1,3,362.97743001,-1.50075041,False,127
102,4,1,lkj,12,2021-11-29T14:08:55.133Z,gomot_a.0016.eq.wav,1,4,521.79790965,-4.02152596,False,127
102,4,1,lkj,12,2021-11-29T14:08:55.133Z,gomot_a.0016.eq.wav,1,5,704.34790983,1.32948124,False,127
102,4,1,lkj,12,2021-11-29T14:08:55.133Z,gomot_a.0016.eq.wav,1,6,914.17288101,-4.09670217,False,127
102,4,1,lkj,12,2021-11-29T14:08:55.133Z,gomot_a.0016.eq.wav,1,7,1155.34800284,1.32804793,False,127
102,4,1,lkj,12,2021-11-29T14:08:55.133Z,gomot_a.0016.eq.wav,1,8,1432.55733147,-1.80515940,False,127
102,4,1,lkj,12,2021-11-29T14:08:55.133Z,gomot_a.0016.eq.wav,1,9,1751.18477235,1.68101120,False,127
102,4,1,lkj,12,2021-11-29T14:08:55.133Z,gomot_a.0016.eq.wav,1,10,2117.41864548,-0.20181321,False,127
102,4,1,lkj,12,2021-11-29T14:08:55.133Z,gomot_a.0016.eq.wav,1,11,2538.37187364,-1.14576093,False,127
102,4,1,lkj,12,2021-11-29T14:08:55.133Z,gomot_a.0016.eq.wav,1,12,3022.22012828,-4.49734638,False,127
102,4,1,lkj,12,2021-11-29T14:08:55.133Z,gomot_a.0016.eq.wav,1,13,3578.36061576,0.48575382,False,127
102,4,1,lkj,12,2021-11-29T14:08:55.133Z,gomot_a.0016.eq.wav,1,14,4217.59458808,1.52691912,False,127
102,4,1,lkj,12,2021-11-29T14:08:55.133Z,gomot_a.0016.eq.wav,1,15,4952.33712269,0.14136143,False,127
102,4,1,lkj,12,2021-11-29T14:08:55.133Z,gomot_a.0016.eq.wav,1,16,5796.85824570,2.06987844,False,127
102,4,1,lkj,12,2021-11-29T14:08:55.133Z,gomot_a.0016.eq.wav,1,17,6767.56008152,-4.70966314,False,127
102,4,1,lkj,12,2021-11-29T14:08:55.133Z,gomot_a.0016.eq.wav,1,18,7883.29541175,-4.84018484,False,127
102,4,1,lkj,12,2021-11-29T14:08:55.133Z,gomot_a.0016.eq.wav,1,19,9165.73383021,1.08476750,False,127
102,4,1,lkj,12,2021-11-29T14:08:55.133Z,gomot_a.0016.eq.wav,1,20,10639.78260555,-2.91798083,False,127
102,4,1,lkj,12,2021-11-29T14:08:55.133Z,gomot_a.0016.eq.wav,1,21,12334.07042541,-4.52739269,False,127
102,4,1,lkj,12,2021-11-29T14:08:55.133Z,gomot_a.0016.eq.wav,1,22,14281.50341712,-0.70374908,False,127
102,4,1,lkj,12,2021-11-29T14:08:55.133Z,gomot_a.0016.eq.wav,1,23,16519.90424416,4.88451900,False,127
102,4,1,lkj,12,2021-11-29T14:08:55.133Z,gomot_a.0016.eq.wav,1,24,19092.74669051,-4.43692226,False,127
102,4,1,lkj,12,2021-11-29T14:08:55.133Z,gomot_a.0016.eq.wav,1,25,22050.00000000,-3.69134890,False,127
102,5,1,lkj,12,2021-11-29T14:08:55.133Z,gomot_a.0049.eq.wav,0,0,0.00000000,-1.75009646,True,254
102,5,1,lkj,12,2021-11-29T14:08:55.133Z,gomot_a.0049.eq.wav,0,1,104.58767290,-4.68949526,True,254
102,5,1,lkj,12,2021-11-29T14:08:55.133Z,gomot_a.0049.eq.wav,0,2,224.80189054,1.59088497,True,254
102,5,1,lkj,12,2021-11-29T14:08:55.133Z,gomot_a.0049.eq.wav,0,3,362.97743001,-4.10668826,True,254
102,5,1,lkj,12,2021-11-29T14:08:55.133Z,gomot_a.0049.eq.wav,0,4,521.79790965,-0.27539168,True,254
102,5,1,lkj,12,2021-11-29T14:08:55.133Z,gomot_a.0049.eq.wav,0,5,704.34790983,0.00787030,True,254
102,5,1,lkj,12,2021-11-29T14:08:55.133Z,gomot_a.0049.eq.wav,0,6,914.17288101,4.14190553,True,254
102,5,1,lkj,12,2021-11-29T14:08:55.133Z,gomot_a.0049.eq.wav,0,7,1155.34800284,-3.91776862,True,254
102,5,1,lkj,12,2021-11-29T14:08:55.133Z,gomot_a.0049.eq.wav,0,8,1432.55733147,0.87917740,True,254
102,5,1,lkj,12,2021-11-29T14:08:55.133Z,gomot_a.0049.eq.wav,0,9,1751.18477235,-0.89114449,True,254
102,5,1,lkj,12,2021-11-29T14:08:55.133Z,gomot_a.0049.eq.wav,0,10,2117.41864548,4.42351000,True,254
102,5,1,lkj,12,2021-11-29T14:08:55.133Z,gomot_a.0049.eq.wav,0,11,2538.37187364,-4.76809712,True,254
102,5,1,lkj,12,2021-11-29T14:08:55.133Z,gomot_a.0049.eq.wav,0,12,3022.22012828,3.18069417,True,254
102,5,1,lkj,12,2021-11-29T14:08:55.133Z,gomot_a.0049.eq.wav,0,13,3578.36061576,0.07917984,True,254
102,5,1,lkj,12,2021-11-29T14:08:55.133Z,gomot_a.0049.eq.wav,0,14,4217.59458808,4.18290699,True,254
102,5,1,lkj,12,2021-11-29T14:08:55.133Z,gomot_a.0049.eq.wav,0,15,4952.33712269,1.54488285,True,254
102,5,1,lkj,12,2021-11-29T14:08:55.133Z,gomot_a.0049.eq.wav,0,16,5796.85824570,-4.46972323,True,254
102,5,1,lkj,12,2021-11-29T14:08:55.133Z,gomot_a.0049.eq.wav,0,17,6767.56008152,-0.18022610,True,254
102,5,1,lkj,12,2021-11-29T14:08:55.133Z,gomot_a.0049.eq.wav,0,18,7883.29541175,1.66985694,True,254
102,5,1,lkj,12,2021-11-29T14:08:55.133Z,gomot_a.0049.eq.wav,0,19,9165.73383021,-1.97569442,True,254
102,5,1,lkj,12,2021-11-29T14:08:55.133Z,gomot_a.0049.eq.wav,0,20,10639.78260555,1.62508036,True,254
102,5,1,lkj,12,2021-11-29T14:08:55.133Z,gomot_a.0049.eq.wav,0,21,12334.07042541,0.12211539,True,254
102,5,1,lkj,12,2021-11-29T14:08:55.133Z,gomot_a.0049.eq.wav,0,22,14281.50341712,3.17132252,True,254
102,5,1,lkj,12,2021-11-29T14:08:55.133Z,gomot_a.0049.eq.wav,0,23,16519.90424416,0.07485103,True,254
102,5,1,lkj,12,2021-11-29T14:08:55.133Z,gomot_a.0049.eq.wav,0,24,19092.74669051,0.56296769,True,254
102,5,1,lkj,12,2021-11-29T14:08:55.133Z,gomot_a.0049.eq.wav,0,25,22050.00000000,-4.94983914,True,254
102,5,1,lkj,12,2021-11-29T14:08:55.133Z,gomot_a.0002.eq.wav,1,0,0.00000000,4.99533491,False,254
102,5,1,lkj,12,2021-11-29T14:08:55.133Z,gomot_a.0002.eq.wav,1,1,104.58767290,2.48051103,False,254
102,5,1,lkj,12,2021-11-29T14:08:55.133Z,gomot_a.0002.eq.wav,1,2,224.80189054,-0.67893756,False,254
102,5,1,lkj,12,2021-11-29T14:08:55.133Z,gomot_a.0002.eq.wav,1,3,362.97743001,-0.94640202,False,254
102,5,1,lkj,12,2021-11-29T14:08:55.133Z,gomot_a.0002.eq.wav,1,4,521.79790965,-2.91650724,False,254
102,5,1,lkj,12,2021-11-29T14:08:55.133Z,gomot_a.0002.eq.wav,1,5,704.34790983,-2.74890495,False,254
102,5,1,lkj,12,2021-11-29T14:08:55.133Z,gomot_a.0002.eq.wav,1,6,914.17288101,1.59610554,False,254
102,5,1,lkj,12,2021-11-29T14:08:55.133Z,gomot_a.0002.eq.wav,1,7,1155.34800284,-3.31735326,False,254
102,5,1,lkj,12,2021-11-29T14:08:55.133Z,gomot_a.0002.eq.wav,1,8,1432.55733147,4.77536706,False,254
102,5,1,lkj,12,2021-11-29T14:08:55.133Z,gomot_a.0002.eq.wav,1,9,1751.18477235,0.45933659,False,254
102,5,1,lkj,12,2021-11-29T14:08:55.133Z,gomot_a.0002.eq.wav,1,10,2117.41864548,-0.63464625,False,254
102,5,1,lkj,12,2021-11-29T14:08:55.133Z,gomot_a.0002.eq.wav,1,11,2538.37187364,-1.43755889,False,254
102,5,1,lkj,12,2021-11-29T14:08:55.133Z,gomot_a.0002.eq.wav,1,12,3022.22012828,1.13251096,False,254
102,5,1,lkj,12,2021-11-29T14:08:55.133Z,gomot_a.0002.eq.wav,1,13,3578.36061576,0.19141899,False,254
102,5,1,lkj,12,2021-11-29T14:08:55.133Z,gomot_a.0002.eq.wav,1,14,4217.59458808,3.26018593,False,254
102,5,1,lkj,12,2021-11-29T14:08:55.133Z,gomot_a.0002.eq.wav,1,15,4952.33712269,-1.93208808,False,254
102,5,1,lkj,12,2021-11-29T14:08:55.133Z,gomot_a.0002.eq.wav,1,16,5796.85824570,4.20251800,False,254
102,5,1,lkj,12,2021-11-29T14:08:55.133Z,gomot_a.0002.eq.wav,1,17,6767.56008152,-4.35207866,False,254
102,5,1,lkj,12,2021-11-29T14:08:55.133Z,gomot_a.0002.eq.wav,1,18,7883.29541175,1.45116162,False,254
102,5,1,lkj,12,2021-11-29T14:08:55.133Z,gomot_a.0002.eq.wav,1,19,9165.73383021,-3.43417225,False,254
102,5,1,lkj,12,2021-11-29T14:08:55.133Z,gomot_a.0002.eq.wav,1,20,10639.78260555,-1.62895151,False,254
102,5,1,lkj,12,2021-11-29T14:08:55.133Z,gomot_a.0002.eq.wav,1,21,12334.07042541,0.55724529,False,254
102,5,1,lkj,12,2021-11-29T14:08:55.133Z,gomot_a.0002.eq.wav,1,22,14281.50341712,1.20930709,False,254
102,5,1,lkj,12,2021-11-29T14:08:55.133Z,gomot_a.0002.eq.wav,1,23,16519.90424416,3.27031329,False,254
102,5,1,lkj,12,2021-11-29T14:08:55.133Z,gomot_a.0002.eq.wav,1,24,19092.74669051,-2.46557002,False,254
102,5,1,lkj,12,2021-11-29T14:08:55.133Z,gomot_a.0002.eq.wav,1,25,22050.00000000,-0.12848688,False,254
102,6,2,lkj,12,2021-11-29T14:08:55.133Z,gomot_a.0013.eq.wav,0,0,0.00000000,1.04344648,True,163
102,6,2,lkj,12,2021-11-29T14:08:55.133Z,gomot_a.0013.eq.wav,0,1,104.58767290,0.72774948,True,163
102,6,2,lkj,12,2021-11-29T14:08:55.133Z,gomot_a.0013.eq.wav,0,2,224.80189054,-2.45748338,True,163
102,6,2,lkj,12,2021-11-29T14:08:55.133Z,gomot_a.0013.eq.wav,0,3,362.97743001,-3.71381348,True,163
102,6,2,lkj,12,2021-11-29T14:08:55.133Z,gomot_a.0013.eq.wav,0,4,521.79790965,0.86474533,True,163
102,6,2,lkj,12,2021-11-29T14:08:55.133Z,gomot_a.0013.eq.wav,0,5,704.34790983,4.09792036,True,163
102,6,2,lkj,12,2021-11-29T14:08:55.133Z,gomot_a.0013.eq.wav,0,6,914.17288101,-2.04404147,True,163
102,6,2,lkj,12,2021-11-29T14:08:55.133Z,gomot_a.0013.eq.wav,0,7,1155.34800284,1.32458151,True,163
102,6,2,lkj,12,2021-11-29T14:08:55.133Z,gomot_a.0013.eq.wav,0,8,1432.55733147,3.31167860,True,163
102,6,2,lkj,12,2021-11-29T14:08:55.133Z,gomot_a.0013.eq.wav,0,9,1751.18477235,3.18077878,True,163
102,6,2,lkj,12,2021-11-29T14:08:55.133Z,gomot_a.0013.eq.wav,0,10,2117.41864548,0.21832325,True,163
102,6,2,lkj,12,2021-11-29T14:08:55.133Z,gomot_a.0013.eq.wav,0,11,2538.37187364,0.53103742,True,163
102,6,2,lkj,12,2021-11-29T14:08:55.133Z,gomot_a.0013.eq.wav,0,12,3022.22012828,2.93358194,True,163
102,6,2,lkj,12,2021-11-29T14:08:55.133Z,gomot_a.0013.eq.wav,0,13,3578.36061576,-4.18192687,True,163
102,6,2,lkj,12,2021-11-29T14:08:55.133Z,gomot_a.0013.eq.wav,0,14,4217.59458808,-2.45194433,True,163
102,6,2,lkj,12,2021-11-29T14:08:55.133Z,gomot_a.0013.eq.wav,0,15,4952.33712269,-1.08727648,True,163
102,6,2,lkj,12,2021-11-29T14:08:55.133Z,gomot_a.0013.eq.wav,0,16,5796.85824570,-0.01057317,True,163
102,6,2,lkj,12,2021-11-29T14:08:55.133Z,gomot_a.0013.eq.wav,0,17,6767.56008152,1.32796313,True,163
102,6,2,lkj,12,2021-11-29T14:08:55.133Z,gomot_a.0013.eq.wav,0,18,7883.29541175,-0.91861888,True,163
102,6,2,lkj,12,2021-11-29T14:08:55.133Z,gomot_a.0013.eq.wav,0,19,9165.73383021,-3.30663818,True,163
102,6,2,lkj,12,2021-11-29T14:08:55.133Z,gomot_a.0013.eq.wav,0,20,10639.78260555,0.24442083,True,163
102,6,2,lkj,12,2021-11-29T14:08:55.133Z,gomot_a.0013.eq.wav,0,21,12334.07042541,-0.99490508,True,163
102,6,2,lkj,12,2021-11-29T14:08:55.133Z,gomot_a.0013.eq.wav,0,22,14281.50341712,-4.58282233,True,163
102,6,2,lkj,12,2021-11-29T14:08:55.133Z,gomot_a.0013.eq.wav,0,23,16519.90424416,0.27318967,True,163
102,6,2,lkj,12,2021-11-29T14:08:55.133Z,gomot_a.0013.eq.wav,0,24,19092.74669051,4.35686593,True,163
102,6,2,lkj,12,2021-11-29T14:08:55.133Z,gomot_a.0013.eq.wav,0,25,22050.00000000,-4.89903479,True,163
102,6,2,lkj,12,2021-11-29T14:08:55.133Z,gomot_a.0059.eq.wav,1,0,0.00000000,2.68120984,False,163
102,6,2,lkj,12,2021-11-29T14:08:55.133Z,gomot_a.0059.eq.wav,1,1,104.58767290,-4.71220654,False,163
102,6,2,lkj,12,2021-11-29T14:08:55.133Z,gomot_a.0059.eq.wav,1,2,224.80189054,1.56485159,False,163
102,6,2,lkj,12,2021-11-29T14:08:55.133Z,gomot_a.0059.eq.wav,1,3,362.97743001,0.26978877,False,163
102,6,2,lkj,12,2021-11-29T14:08:55.133Z,gomot_a.0059.eq.wav,1,4,521.79790965,3.04103951,False,163
102,6,2,lkj,12,2021-11-29T14:08:55.133Z,gomot_a.0059.eq.wav,1,5,704.34790983,-1.55198887,False,163
102,6,2,lkj,12,2021-11-29T14:08:55.133Z,gomot_a.0059.eq.wav,1,6,914.17288101,0.06699120,False,163
102,6,2,lkj,12,2021-11-29T14:08:55.133Z,gomot_a.0059.eq.wav,1,7,1155.34800284,0.13356660,False,163
102,6,2,lkj,12,2021-11-29T14:08:55.133Z,gomot_a.0059.eq.wav,1,8,1432.55733147,-1.60445985,False,163
102,6,2,lkj,12,2021-11-29T14:08:55.133Z,gomot_a.0059.eq.wav,1,9,1751.18477235,-0.70250139,False,163
102,6,2,lkj,12,2021-11-29T14:08:55.133Z,gomot_a.0059.eq.wav,1,10,2117.41864548,4.33497685,False,163
102,6,2,lkj,12,2021-11-29T14:08:55.133Z,gomot_a.0059.eq.wav,1,11,2538.37187364,2.14210771,False,163
102,6,2,lkj,12,2021-11-29T14:08:55.133Z,gomot_a.0059.eq.wav,1,12,3022.22012828,-3.52215697,False,163
102,6,2,lkj,12,2021-11-29T14:08:55.133Z,gomot_a.0059.eq.wav,1,13,3578.36061576,0.07507471,False,163
102,6,2,lkj,12,2021-11-29T14:08:55.133Z,gomot_a.0059.eq.wav,1,14,4217.59458808,2.66357088,False,163
102,6,2,lkj,12,2021-11-29T14:08:55.133Z,gomot_a.0059.eq.wav,1,15,4952.33712269,2.40621889,False,163
102,6,2,lkj,12,2021-11-29T14:08:55.133Z,gomot_a.0059.eq.wav,1,16,5796.85824570,0.91691605,False,163
102,6,2,lkj,12,2021-11-29T14:08:55.133Z,gomot_a.0059.eq.wav,1,17,6767.56008152,-4.49380907,False,163
102,6,2,lkj,12,2021-11-29T14:08:55.133Z,gomot_a.0059.eq.wav,1,18,7883.29541175,-0.43293334,False,163
102,6,2,lkj,12,2021-11-29T14:08:55.133Z,gomot_a.0059.eq.wav,1,19,9165.73383021,-3.06329289,False,163
102,6,2,lkj,12,2021-11-29T14:08:55.133Z,gomot_a.0059.eq.wav,1,20,10639.78260555,-3.82909680,False,163
102,6,2,lkj,12,2021-11-29T14:08:55.133Z,gomot_a.0059.eq.wav,1,21,12334.07042541,-4.82205514,False,163
102,6,2,lkj,12,2021-11-29T14:08:55.133Z,gomot_a.0059.eq.wav,1,22,14281.50341712,0.04486841,False,163
102,6,2,lkj,12,2021-11-29T14:08:55.133Z,gomot_a.0059.eq.wav,1,23,16519.90424416,1.20798841,False,163
102,6,2,lkj,12,2021-11-29T14:08:55.133Z,gomot_a.0059.eq.wav,1,24,19092.74669051,3.39101231,False,163
102,6,2,lkj,12,2021-11-29T14:08:55.133Z,gomot_a.0059.eq.wav,1,25,22050.00000000,-0.21837354,False,163
102,7,2,lkj,12,2021-11-29T14:08:55.133Z,gomot_a.0051.eq.wav,0,0,0.00000000,3.74489907,True,261
102,7,2,lkj,12,2021-11-29T14:08:55.133Z,gomot_a.0051.eq.wav,0,1,104.58767290,-3.30653515,True,261
102,7,2,lkj,12,2021-11-29T14:08:55.133Z,gomot_a.0051.eq.wav,0,2,224.80189054,2.29335496,True,261
102,7,2,lkj,12,2021-11-29T14:08:55.133Z,gomot_a.0051.eq.wav,0,3,362.97743001,1.07322132,True,261
102,7,2,lkj,12,2021-11-29T14:08:55.133Z,gomot_a.0051.eq.wav,0,4,521.79790965,-0.01177768,True,261
102,7,2,lkj,12,2021-11-29T14:08:55.133Z,gomot_a.0051.eq.wav,0,5,704.34790983,-4.36973825,True,261
102,7,2,lkj,12,2021-11-29T14:08:55.133Z,gomot_a.0051.eq.wav,0,6,914.17288101,-2.12424133,True,261
102,7,2,lkj,12,2021-11-29T14:08:55.133Z,gomot_a.0051.eq.wav,0,7,1155.34800284,3.35093778,True,261
102,7,2,lkj,12,2021-11-29T14:08:55.133Z,gomot_a.0051.eq.wav,0,8,1432.55733147,3.60147557,True,261
102,7,2,lkj,12,2021-11-29T14:08:55.133Z,gomot_a.0051.eq.wav,0,9,1751.18477235,0.30037626,True,261
102,7,2,lkj,12,2021-11-29T14:08:55.133Z,gomot_a.0051.eq.wav,0,10,2117.41864548,-2.68583148,True,261
102,7,2,lkj,12,2021-11-29T14:08:55.133Z,gomot_a.0051.eq.wav,0,11,2538.37187364,3.69302890,True,261
102,7,2,lkj,12,2021-11-29T14:08:55.133Z,gomot_a.0051.eq.wav,0,12,3022.22012828,-1.02517874,True,261
102,7,2,lkj,12,2021-11-29T14:08:55.133Z,gomot_a.0051.eq.wav,0,13,3578.36061576,-4.17090412,True,261
102,7,2,lkj,12,2021-11-29T14:08:55.133Z,gomot_a.0051.eq.wav,0,14,4217.59458808,-3.52157235,True,261
102,7,2,lkj,12,2021-11-29T14:08:55.133Z,gomot_a.0051.eq.wav,0,15,4952.33712269,2.02059983,True,261
102,7,2,lkj,12,2021-11-29T14:08:55.133Z,gomot_a.0051.eq.wav,0,16,5796.85824570,-2.70086945,True,261
102,7,2,lkj,12,2021-11-29T14:08:55.133Z,gomot_a.0051.eq.wav,0,17,6767.56008152,2.51431868,True,261
102,7,2,lkj,12,2021-11-29T14:08:55.133Z,gomot_a.0051.eq.wav,0,18,7883.29541175,4.84459175,True,261
102,7,2,lkj,12,2021-11-29T14:08:55.133Z,gomot_a.0051.eq.wav,0,19,9165.73383021,4.72053453,True,261
102,7,2,lkj,12,2021-11-29T14:08:55.133Z,gomot_a.0051.eq.wav,0,20,10639.78260555,3.13700871,True,261
102,7,2,lkj,12,2021-11-29T14:08:55.133Z,gomot_a.0051.eq.wav,0,21,12334.07042541,4.39622257,True,261
102,7,2,lkj,12,2021-11-29T14:08:55.133Z,gomot_a.0051.eq.wav,0,22,14281.50341712,1.66792525,True,261
102,7,2,lkj,12,2021-11-29T14:08:55.133Z,gomot_a.0051.eq.wav,0,23,16519.90424416,1.83021332,True,261
102,7,2,lkj,12,2021-11-29T14:08:55.133Z,gomot_a.0051.eq.wav,0,24,19092.74669051,-2.78167251,True,261
102,7,2,lkj,12,2021-11-29T14:08:55.133Z,gomot_a.0051.eq.wav,0,25,22050.00000000,-0.94110166,True,261
102,7,2,lkj,12,2021-11-29T14:08:55.133Z,gomot_a.0058.eq.wav,1,0,0.00000000,-4.21771089,False,261
102,7,2,lkj,12,2021-11-29T14:08:55.133Z,gomot_a.0058.eq.wav,1,1,104.58767290,3.01127180,False,261
102,7,2,lkj,12,2021-11-29T14:08:55.133Z,gomot_a.0058.eq.wav,1,2,224.80189054,-3.04292782,False,261
102,7,2,lkj,12,2021-11-29T14:08:55.133Z,gomot_a.0058.eq.wav,1,3,362.97743001,3.71736409,False,261
102,7,2,lkj,12,2021-11-29T14:08:55.133Z,gomot_a.0058.eq.wav,1,4,521.79790965,4.88386606,False,261
102,7,2,lkj,12,2021-11-29T14:08:55.133Z,gomot_a.0058.eq.wav,1,5,704.34790983,1.06558481,False,261
102,7,2,lkj,12,2021-11-29T14:08:55.133Z,gomot_a.0058.eq.wav,1,6,914.17288101,1.34742040,False,261
102,7,2,lkj,12,2021-11-29T14:08:55.133Z,gomot_a.0058.eq.wav,1,7,1155.34800284,0.11610537,False,261
102,7,2,lkj,12,2021-11-29T14:08:55.133Z,gomot_a.0058.eq.wav,1,8,1432.55733147,-0.91841804,False,261
102,7,2,lkj,12,2021-11-29T14:08:55.133Z,gomot_a.0058.eq.wav,1,9,1751.18477235,-4.15072158,False,261
102,7,2,lkj,12,2021-11-29T14:08:55.133Z,gomot_a.0058.eq.wav,1,10,2117.41864548,-0.04412723,False,261
102,7,2,lkj,12,2021-11-29T14:08:55.133Z,gomot_a.0058.eq.wav,1,11,2538.37187364,-1.94571486,False,261
102,7,2,lkj,12,2021-11-29T14:08:55.133Z,gomot_a.0058.eq.wav,1,12,3022.22012828,4.82304421,False,261
102,7,2,lkj,12,2021-11-29T14:08:55.133Z,gomot_a.0058.eq.wav,1,13,3578.36061576,-3.18133115,False,261
102,7,2,lkj,12,2021-11-29T14:08:55.133Z,gomot_a.0058.eq.wav,1,14,4217.59458808,2.43077797,False,261
102,7,2,lkj,12,2021-11-29T14:08:55.133Z,gomot_a.0058.eq.wav,1,15,4952.33712269,-2.27643197,False,261
102,7,2,lkj,12,2021-11-29T14:08:55.133Z,gomot_a.0058.eq.wav,1,16,5796.85824570,0.58639150,False,261
102,7,2,lkj,12,2021-11-29T14:08:55.133Z,gomot_a.0058.eq.wav,1,17,6767.56008152,-2.97258931,False,261
102,7,2,lkj,12,2021-11-29T14:08:55.133Z,gomot_a.0058.eq.wav,1,18,7883.29541175,-2.49853347,False,261
102,7,2,lkj,12,2021-11-29T14:08:55.133Z,gomot_a.0058.eq.wav,1,19,9165.73383021,3.45272934,False,261
102,7,2,lkj,12,2021-11-29T14:08:55.133Z,gomot_a.0058.eq.wav,1,20,10639.78260555,-1.77216553,False,261
102,7,2,lkj,12,2021-11-29T14:08:55.133Z,gomot_a.0058.eq.wav,1,21,12334.07042541,-3.03297461,False,261
102,7,2,lkj,12,2021-11-29T14:08:55.133Z,gomot_a.0058.eq.wav,1,22,14281.50341712,3.96331745,False,261
102,7,2,lkj,12,2021-11-29T14:08:55.133Z,gomot_a.0058.eq.wav,1,23,16519.90424416,1.56783440,False,261
102,7,2,lkj,12,2021-11-29T14:08:55.133Z,gomot_a.0058.eq.wav,1,24,19092.74669051,0.41355887,False,261
102,7,2,lkj,12,2021-11-29T14:08:55.133Z,gomot_a.0058.eq.wav,1,25,22050.00000000,-2.65523613,False,261
102,8,2,lkj,12,2021-11-29T14:08:55.133Z,gomot_a.0050.eq.wav,0,0,0.00000000,4.24602145,True,231
102,8,2,lkj,12,2021-11-29T14:08:55.133Z,gomot_a.0050.eq.wav,0,1,104.58767290,4.54813008,True,231
102,8,2,lkj,12,2021-11-29T14:08:55.133Z,gomot_a.0050.eq.wav,0,2,224.80189054,2.14728993,True,231
102,8,2,lkj,12,2021-11-29T14:08:55.133Z,gomot_a.0050.eq.wav,0,3,362.97743001,0.07658793,True,231
102,8,2,lkj,12,2021-11-29T14:08:55.133Z,gomot_a.0050.eq.wav,0,4,521.79790965,2.37112148,True,231
102,8,2,lkj,12,2021-11-29T14:08:55.133Z,gomot_a.0050.eq.wav,0,5,704.34790983,1.00331269,True,231
102,8,2,lkj,12,2021-11-29T14:08:55.133Z,gomot_a.0050.eq.wav,0,6,914.17288101,-1.80218469,True,231
102,8,2,lkj,12,2021-11-29T14:08:55.133Z,gomot_a.0050.eq.wav,0,7,1155.34800284,1.14222605,True,231
102,8,2,lkj,12,2021-11-29T14:08:55.133Z,gomot_a.0050.eq.wav,0,8,1432.55733147,1.77750824,True,231
102,8,2,lkj,12,2021-11-29T14:08:55.133Z,gomot_a.0050.eq.wav,0,9,1751.18477235,1.52564236,True,231
102,8,2,lkj,12,2021-11-29T14:08:55.133Z,gomot_a.0050.eq.wav,0,10,2117.41864548,-4.24349134,True,231
102,8,2,lkj,12,2021-11-29T14:08:55.133Z,gomot_a.0050.eq.wav,0,11,2538.37187364,-3.90612631,True,231
102,8,2,lkj,12,2021-11-29T14:08:55.133Z,gomot_a.0050.eq.wav,0,12,3022.22012828,2.74548423,True,231
102,8,2,lkj,12,2021-11-29T14:08:55.133Z,gomot_a.0050.eq.wav,0,13,3578.36061576,2.90118443,True,231
102,8,2,lkj,12,2021-11-29T14:08:55.133Z,gomot_a.0050.eq.wav,0,14,4217.59458808,-2.60289514,True,231
102,8,2,lkj,12,2021-11-29T14:08:55.133Z,gomot_a.0050.eq.wav,0,15,4952.33712269,-4.26829665,True,231
102,8,2,lkj,12,2021-11-29T14:08:55.133Z,gomot_a.0050.eq.wav,0,16,5796.85824570,-0.95514095,True,231
102,8,2,lkj,12,2021-11-29T14:08:55.133Z,gomot_a.0050.eq.wav,0,17,6767.56008152,-0.08326761,True,231
102,8,2,lkj,12,2021-11-29T14:08:55.133Z,gomot_a.0050.eq.wav,0,18,7883.29541175,-4.80340035,True,231
102,8,2,lkj,12,2021-11-29T14:08:55.133Z,gomot_a.0050.eq.wav,0,19,9165.73383021,1.64953819,True,231
102,8,2,lkj,12,2021-11-29T14:08:55.133Z,gomot_a.0050.eq.wav,0,20,10639.78260555,4.93077251,True,231
102,8,2,lkj,12,2021-11-29T14:08:55.133Z,gomot_a.0050.eq.wav,0,21,12334.07042541,4.41244729,True,231
102,8,2,lkj,12,2021-11-29T14:08:55.133Z,gomot_a.0050.eq.wav,0,22,14281.50341712,-2.65197974,True,231
102,8,2,lkj,12,2021-11-29T14:08:55.133Z,gomot_a.0050.eq.wav,0,23,16519.90424416,-4.70006540,True,231
102,8,2,lkj,12,2021-11-29T14:08:55.133Z,gomot_a.0050.eq.wav,0,24,19092.74669051,-1.18498711,True,231
102,8,2,lkj,12,2021-11-29T14:08:55.133Z,gomot_a.0050.eq.wav,0,25,22050.00000000,-2.48472260,True,231
102,8,2,lkj,12,2021-11-29T14:08:55.133Z,gomot_a.0021.eq.wav,1,0,0.00000000,-2.08785398,False,231
102,8,2,lkj,12,2021-11-29T14:08:55.133Z,gomot_a.0021.eq.wav,1,1,104.58767290,3.48859031,False,231
102,8,2,lkj,12,2021-11-29T14:08:55.133Z,gomot_a.0021.eq.wav,1,2,224.80189054,-1.03003123,False,231
102,8,2,lkj,12,2021-11-29T14:08:55.133Z,gomot_a.0021.eq.wav,1,3,362.97743001,-0.08044277,False,231
102,8,2,lkj,12,2021-11-29T14:08:55.133Z,gomot_a.0021.eq.wav,1,4,521.79790965,0.78103546,False,231
102,8,2,lkj,12,2021-11-29T14:08:55.133Z,gomot_a.0021.eq.wav,1,5,704.34790983,0.45037339,False,231
102,8,2,lkj,12,2021-11-29T14:08:55.133Z,gomot_a.0021.eq.wav,1,6,914.17288101,-0.99987795,False,231
102,8,2,lkj,12,2021-11-29T14:08:55.133Z,gomot_a.0021.eq.wav,1,7,1155.34800284,-1.72725689,False,231
102,8,2,lkj,12,2021-11-29T14:08:55.133Z,gomot_a.0021.eq.wav,1,8,1432.55733147,-2.98440453,False,231
102,8,2,lkj,12,2021-11-29T14:08:55.133Z,gomot_a.0021.eq.wav,1,9,1751.18477235,2.07559584,False,231
102,8,2,lkj,12,2021-11-29T14:08:55.133Z,gomot_a.0021.eq.wav,1,10,2117.41864548,3.37978422,False,231
102,8,2,lkj,12,2021-11-29T14:08:55.133Z,gomot_a.0021.eq.wav,1,11,2538.37187364,0.82495736,False,231
102,8,2,lkj,12,2021-11-29T14:08:55.133Z,gomot_a.0021.eq.wav,1,12,3022.22012828,-1.91093385,False,231
102,8,2,lkj,12,2021-11-29T14:08:55.133Z,gomot_a.0021.eq.wav,1,13,3578.36061576,1.48415377,False,231
102,8,2,lkj,12,2021-11-29T14:08:55.133Z,gomot_a.0021.eq.wav,1,14,4217.59458808,-2.62777312,False,231
102,8,2,lkj,12,2021-11-29T14:08:55.133Z,gomot_a.0021.eq.wav,1,15,4952.33712269,0.68456148,False,231
102,8,2,lkj,12,2021-11-29T14:08:55.133Z,gomot_a.0021.eq.wav,1,16,5796.85824570,1.84805429,False,231
102,8,2,lkj,12,2021-11-29T14:08:55.133Z,gomot_a.0021.eq.wav,1,17,6767.56008152,-1.91090409,False,231
102,8,2,lkj,12,2021-11-29T14:08:55.133Z,gomot_a.0021.eq.wav,1,18,7883.29541175,3.92946300,False,231
102,8,2,lkj,12,2021-11-29T14:08:55.133Z,gomot_a.0021.eq.wav,1,19,9165.73383021,0.69635523,False,231
102,8,2,lkj,12,2021-11-29T14:08:55.133Z,gomot_a.0021.eq.wav,1,20,10639.78260555,-0.81073604,False,231
102,8,2,lkj,12,2021-11-29T14:08:55.133Z,gomot_a.0021.eq.wav,1,21,12334.07042541,0.87871908,False,231
102,8,2,lkj,12,2021-11-29T14:08:55.133Z,gomot_a.0021.eq.wav,1,22,14281.50341712,-2.24879652,False,231
102,8,2,lkj,12,2021-11-29T14:08:55.133Z,gomot_a.0021.eq.wav,1,23,16519.90424416,1.45885173,False,231
102,8,2,lkj,12,2021-11-29T14:08:55.133Z,gomot_a.0021.eq.wav,1,24,19092.74669051,-1.96957882,False,231
102,8,2,lkj,12,2021-11-29T14:08:55.133Z,gomot_a.0021.eq.wav,1,25,22050.00000000,2.94834061,False,231
102,9,3,lkj,12,2021-11-29T14:08:55.133Z,gomot_a.0095.eq.wav,0,0,0.00000000,0.48678094,True,241
102,9,3,lkj,12,2021-11-29T14:08:55.133Z,gomot_a.0095.eq.wav,0,1,104.58767290,-2.68545174,True,241
102,9,3,lkj,12,2021-11-29T14:08:55.133Z,gomot_a.0095.eq.wav,0,2,224.80189054,-1.14368737,True,241
102,9,3,lkj,12,2021-11-29T14:08:55.133Z,gomot_a.0095.eq.wav,0,3,362.97743001,1.16094522,True,241
102,9,3,lkj,12,2021-11-29T14:08:55.133Z,gomot_a.0095.eq.wav,0,4,521.79790965,-2.03166928,True,241
102,9,3,lkj,12,2021-11-29T14:08:55.133Z,gomot_a.0095.eq.wav,0,5,704.34790983,1.07920760,True,241
102,9,3,lkj,12,2021-11-29T14:08:55.133Z,gomot_a.0095.eq.wav,0,6,914.17288101,0.50446993,True,241
102,9,3,lkj,12,2021-11-29T14:08:55.133Z,gomot_a.0095.eq.wav,0,7,1155.34800284,3.47848651,True,241
102,9,3,lkj,12,2021-11-29T14:08:55.133Z,gomot_a.0095.eq.wav,0,8,1432.55733147,4.22414122,True,241
102,9,3,lkj,12,2021-11-29T14:08:55.133Z,gomot_a.0095.eq.wav,0,9,1751.18477235,-3.81763640,True,241
102,9,3,lkj,12,2021-11-29T14:08:55.133Z,gomot_a.0095.eq.wav,0,10,2117.41864548,1.51501095,True,241
102,9,3,lkj,12,2021-11-29T14:08:55.133Z,gomot_a.0095.eq.wav,0,11,2538.37187364,-0.00887359,True,241
102,9,3,lkj,12,2021-11-29T14:08:55.133Z,gomot_a.0095.eq.wav,0,12,3022.22012828,-0.05123321,True,241
102,9,3,lkj,12,2021-11-29T14:08:55.133Z,gomot_a.0095.eq.wav,0,13,3578.36061576,-0.37471801,True,241
102,9,3,lkj,12,2021-11-29T14:08:55.133Z,gomot_a.0095.eq.wav,0,14,4217.59458808,-4.41485406,True,241
102,9,3,lkj,12,2021-11-29T14:08:55.133Z,gomot_a.0095.eq.wav,0,15,4952.33712269,-3.98290750,True,241
102,9,3,lkj,12,2021-11-29T14:08:55.133Z,gomot_a.0095.eq.wav,0,16,5796.85824570,-3.72409031,True,241
102,9,3,lkj,12,2021-11-29T14:08:55.133Z,gomot_a.0095.eq.wav,0,17,6767.56008152,0.24038496,True,241
102,9,3,lkj,12,2021-11-29T14:08:55.133Z,gomot_a.0095.eq.wav,0,18,7883.29541175,4.85211996,True,241
102,9,3,lkj,12,2021-11-29T14:08:55.133Z,gomot_a.0095.eq.wav,0,19,9165.73383021,3.27725704,True,241
102,9,3,lkj,12,2021-11-29T14:08:55.133Z,gomot_a.0095.eq.wav,0,20,10639.78260555,-0.33966560,True,241
102,9,3,lkj,12,2021-11-29T14:08:55.133Z,gomot_a.0095.eq.wav,0,21,12334.07042541,0.60825046,True,241
102,9,3,lkj,12,2021-11-29T14:08:55.133Z,gomot_a.0095.eq.wav,0,22,14281.50341712,-3.57493443,True,241
102,9,3,lkj,12,2021-11-29T14:08:55.133Z,gomot_a.0095.eq.wav,0,23,16519.90424416,0.40183792,True,241
102,9,3,lkj,12,2021-11-29T14:08:55.133Z,gomot_a.0095.eq.wav,0,24,19092.74669051,4.02359063,True,241
102,9,3,lkj,12,2021-11-29T14:08:55.133Z,gomot_a.0095.eq.wav,0,25,22050.00000000,0.79130830,True,241
102,9,3,lkj,12,2021-11-29T14:08:55.133Z,gomot_a.0056.eq.wav,1,0,0.00000000,2.33971034,False,241
102,9,3,lkj,12,2021-11-29T14:08:55.133Z,gomot_a.0056.eq.wav,1,1,104.58767290,-1.75363780,False,241
102,9,3,lkj,12,2021-11-29T14:08:55.133Z,gomot_a.0056.eq.wav,1,2,224.80189054,-3.21923749,False,241
102,9,3,lkj,12,2021-11-29T14:08:55.133Z,gomot_a.0056.eq.wav,1,3,362.97743001,1.98288538,False,241
102,9,3,lkj,12,2021-11-29T14:08:55.133Z,gomot_a.0056.eq.wav,1,4,521.79790965,-1.64226637,False,241
102,9,3,lkj,12,2021-11-29T14:08:55.133Z,gomot_a.0056.eq.wav,1,5,704.34790983,3.88486586,False,241
102,9,3,lkj,12,2021-11-29T14:08:55.133Z,gomot_a.0056.eq.wav,1,6,914.17288101,-1.96772771,False,241
102,9,3,lkj,12,2021-11-29T14:08:55.133Z,gomot_a.0056.eq.wav,1,7,1155.34800284,-1.35244984,False,241
102,9,3,lkj,12,2021-11-29T14:08:55.133Z,gomot_a.0056.eq.wav,1,8,1432.55733147,-2.12434465,False,241
102,9,3,lkj,12,2021-11-29T14:08:55.133Z,gomot_a.0056.eq.wav,1,9,1751.18477235,-2.17133085,False,241
102,9,3,lkj,12,2021-11-29T14:08:55.133Z,gomot_a.0056.eq.wav,1,10,2117.41864548,-1.74795800,False,241
102,9,3,lkj,12,2021-11-29T14:08:55.133Z,gomot_a.0056.eq.wav,1,11,2538.37187364,-0.03285440,False,241
102,9,3,lkj,12,2021-11-29T14:08:55.133Z,gomot_a.0056.eq.wav,1,12,3022.22012828,4.25199860,False,241
102,9,3,lkj,12,2021-11-29T14:08:55.133Z,gomot_a.0056.eq.wav,1,13,3578.36061576,0.37979192,False,241
102,9,3,lkj,12,2021-11-29T14:08:55.133Z,gomot_a.0056.eq.wav,1,14,4217.59458808,0.79430991,False,241
102,9,3,lkj,12,2021-11-29T14:08:55.133Z,gomot_a.0056.eq.wav,1,15,4952.33712269,3.67592325,False,241
102,9,3,lkj,12,2021-11-29T14:08:55.133Z,gomot_a.0056.eq.wav,1,16,5796.85824570,-4.71685346,False,241
102,9,3,lkj,12,2021-11-29T14:08:55.133Z,gomot_a.0056.eq.wav,1,17,6767.56008152,-2.31017897,False,241
102,9,3,lkj,12,2021-11-29T14:08:55.133Z,gomot_a.0056.eq.wav,1,18,7883.29541175,-4.59008943,False,241
102,9,3,lkj,12,2021-11-29T14:08:55.133Z,gomot_a.0056.eq.wav,1,19,9165.73383021,0.22293197,False,241
102,9,3,lkj,12,2021-11-29T14:08:55.133Z,gomot_a.0056.eq.wav,1,20,10639.78260555,0.72793980,False,241
102,9,3,lkj,12,2021-11-29T14:08:55.133Z,gomot_a.0056.eq.wav,1,21,12334.07042541,3.13655081,False,241
102,9,3,lkj,12,2021-11-29T14:08:55.133Z,gomot_a.0056.eq.wav,1,22,14281.50341712,2.63360455,False,241
102,9,3,lkj,12,2021-11-29T14:08:55.133Z,gomot_a.0056.eq.wav,1,23,16519.90424416,0.74375962,False,241
102,9,3,lkj,12,2021-11-29T14:08:55.133Z,gomot_a.0056.eq.wav,1,24,19092.74669051,4.73162079,False,241
102,9,3,lkj,12,2021-11-29T14:08:55.133Z,gomot_a.0056.eq.wav,1,25,22050.00000000,-2.51743527,False,241
102,10,3,lkj,12,2021-11-29T14:08:55.133Z,gomot_a.0008.eq.wav,0,0,0.00000000,-3.97306523,True,629
102,10,3,lkj,12,2021-11-29T14:08:55.133Z,gomot_a.0008.eq.wav,0,1,104.58767290,-2.00906891,True,629
102,10,3,lkj,12,2021-11-29T14:08:55.133Z,gomot_a.0008.eq.wav,0,2,224.80189054,0.98478158,True,629
102,10,3,lkj,12,2021-11-29T14:08:55.133Z,gomot_a.0008.eq.wav,0,3,362.97743001,-1.44563179,True,629
102,10,3,lkj,12,2021-11-29T14:08:55.133Z,gomot_a.0008.eq.wav,0,4,521.79790965,-0.56676753,True,629
102,10,3,lkj,12,2021-11-29T14:08:55.133Z,gomot_a.0008.eq.wav,0,5,704.34790983,4.77407612,True,629
102,10,3,lkj,12,2021-11-29T14:08:55.133Z,gomot_a.0008.eq.wav,0,6,914.17288101,3.07262866,True,629
102,10,3,lkj,12,2021-11-29T14:08:55.133Z,gomot_a.0008.eq.wav,0,7,1155.34800284,3.05502310,True,629
102,10,3,lkj,12,2021-11-29T14:08:55.133Z,gomot_a.0008.eq.wav,0,8,1432.55733147,-3.89900967,True,629
102,10,3,lkj,12,2021-11-29T14:08:55.133Z,gomot_a.0008.eq.wav,0,9,1751.18477235,0.65708411,True,629
102,10,3,lkj,12,2021-11-29T14:08:55.133Z,gomot_a.0008.eq.wav,0,10,2117.41864548,0.41127230,True,629
102,10,3,lkj,12,2021-11-29T14:08:55.133Z,gomot_a.0008.eq.wav,0,11,2538.37187364,-0.47891374,True,629
102,10,3,lkj,12,2021-11-29T14:08:55.133Z,gomot_a.0008.eq.wav,0,12,3022.22012828,-0.74453010,True,629
102,10,3,lkj,12,2021-11-29T14:08:55.133Z,gomot_a.0008.eq.wav,0,13,3578.36061576,3.75526281,True,629
102,10,3,lkj,12,2021-11-29T14:08:55.133Z,gomot_a.0008.eq.wav,0,14,4217.59458808,-0.41224653,True,629
102,10,3,lkj,12,2021-11-29T14:08:55.133Z,gomot_a.0008.eq.wav,0,15,4952.33712269,1.07170172,True,629
102,10,3,lkj,12,2021-11-29T14:08:55.133Z,gomot_a.0008.eq.wav,0,16,5796.85824570,-0.27051555,True,629
102,10,3,lkj,12,2021-11-29T14:08:55.133Z,gomot_a.0008.eq.wav,0,17,6767.56008152,3.19766361,True,629
102,10,3,lkj,12,2021-11-29T14:08:55.133Z,gomot_a.0008.eq.wav,0,18,7883.29541175,1.18516506,True,629
102,10,3,lkj,12,2021-11-29T14:08:55.133Z,gomot_a.0008.eq.wav,0,19,9165.73383021,-4.52521201,True,629
102,10,3,lkj,12,2021-11-29T14:08:55.133Z,gomot_a.0008.eq.wav,0,20,10639.78260555,-2.13051961,True,629
102,10,3,lkj,12,2021-11-29T14:08:55.133Z,gomot_a.0008.eq.wav,0,21,12334.07042541,1.42276156,True,629
102,10,3,lkj,12,2021-11-29T14:08:55.133Z,gomot_a.0008.eq.wav,0,22,14281.50341712,3.02570615,True,629
102,10,3,lkj,12,2021-11-29T14:08:55.133Z,gomot_a.0008.eq.wav,0,23,16519.90424416,-3.97755435,True,629
102,10,3,lkj,12,2021-11-29T14:08:55.133Z,gomot_a.0008.eq.wav,0,24,19092.74669051,0.71013413,True,629
102,10,3,lkj,12,2021-11-29T14:08:55.133Z,gomot_a.0008.eq.wav,0,25,22050.00000000,1.59770815,True,629
102,10,3,lkj,12,2021-11-29T14:08:55.133Z,gomot_a.0003.eq.wav,1,0,0.00000000,2.98720375,False,629
102,10,3,lkj,12,2021-11-29T14:08:55.133Z,gomot_a.0003.eq.wav,1,1,104.58767290,4.17012362,False,629
102,10,3,lkj,12,2021-11-29T14:08:55.133Z,gomot_a.0003.eq.wav,1,2,224.80189054,-1.97180604,False,629
102,10,3,lkj,12,2021-11-29T14:08:55.133Z,gomot_a.0003.eq.wav,1,3,362.97743001,-4.28115004,False,629
102,10,3,lkj,12,2021-11-29T14:08:55.133Z,gomot_a.0003.eq.wav,1,4,521.79790965,0.97548096,False,629
102,10,3,lkj,12,2021-11-29T14:08:55.133Z,gomot_a.0003.eq.wav,1,5,704.34790983,-0.72919709,False,629
102,10,3,lkj,12,2021-11-29T14:08:55.133Z,gomot_a.0003.eq.wav,1,6,914.17288101,-0.82374196,False,629
102,10,3,lkj,12,2021-11-29T14:08:55.133Z,gomot_a.0003.eq.wav,1,7,1155.34800284,0.25839582,False,629
102,10,3,lkj,12,2021-11-29T14:08:55.133Z,gomot_a.0003.eq.wav,1,8,1432.55733147,-1.84801817,False,629
102,10,3,lkj,12,2021-11-29T14:08:55.133Z,gomot_a.0003.eq.wav,1,9,1751.18477235,-0.22009132,False,629
102,10,3,lkj,12,2021-11-29T14:08:55.133Z,gomot_a.0003.eq.wav,1,10,2117.41864548,-2.12908878,False,629
102,10,3,lkj,12,2021-11-29T14:08:55.133Z,gomot_a.0003.eq.wav,1,11,2538.37187364,1.12532798,False,629
102,10,3,lkj,12,2021-11-29T14:08:55.133Z,gomot_a.0003.eq.wav,1,12,3022.22012828,-0.14817055,False,629
102,10,3,lkj,12,2021-11-29T14:08:55.133Z,gomot_a.0003.eq.wav,1,13,3578.36061576,-0.70429606,False,629
102,10,3,lkj,12,2021-11-29T14:08:55.133Z,gomot_a.0003.eq.wav,1,14,4217.59458808,1.40276192,False,629
102,10,3,lkj,12,2021-11-29T14:08:55.133Z,gomot_a.0003.eq.wav,1,15,4952.33712269,-0.39553689,False,629
102,10,3,lkj,12,2021-11-29T14:08:55.133Z,gomot_a.0003.eq.wav,1,16,5796.85824570,-1.40415132,False,629
102,10,3,lkj,12,2021-11-29T14:08:55.133Z,gomot_a.0003.eq.wav,1,17,6767.56008152,-0.23938728,False,629
102,10,3,lkj,12,2021-11-29T14:08:55.133Z,gomot_a.0003.eq.wav,1,18,7883.29541175,-2.65916865,False,629
102,10,3,lkj,12,2021-11-29T14:08:55.133Z,gomot_a.0003.eq.wav,1,19,9165.73383021,-1.44677948,False,629
102,10,3,lkj,12,2021-11-29T14:08:55.133Z,gomot_a.0003.eq.wav,1,20,10639.78260555,1.54221546,False,629
102,10,3,lkj,12,2021-11-29T14:08:55.133Z,gomot_a.0003.eq.wav,1,21,12334.07042541,-2.95405369,False,629
102,10,3,lkj,12,2021-11-29T14:08:55.133Z,gomot_a.0003.eq.wav,1,22,14281.50341712,-1.92099263,False,629
102,10,3,lkj,12,2021-11-29T14:08:55.133Z,gomot_a.0003.eq.wav,1,23,16519.90424416,1.17350834,False,629
102,10,3,lkj,12,2021-11-29T14:08:55.133Z,gomot_a.0003.eq.wav,1,24,19092.74669051,2.78284103,False,629
102,10,3,lkj,12,2021-11-29T14:08:55.133Z,gomot_a.0003.eq.wav,1,25,22050.00000000,3.66063521,False,629
102,11,3,lkj,12,2021-11-29T14:08:55.133Z,gomot_a.0074.eq.wav,0,0,0.00000000,3.20546573,True,287
102,11,3,lkj,12,2021-11-29T14:08:55.133Z,gomot_a.0074.eq.wav,0,1,104.58767290,-1.02565774,True,287
102,11,3,lkj,12,2021-11-29T14:08:55.133Z,gomot_a.0074.eq.wav,0,2,224.80189054,-0.11075854,True,287
102,11,3,lkj,12,2021-11-29T14:08:55.133Z,gomot_a.0074.eq.wav,0,3,362.97743001,3.76114395,True,287
102,11,3,lkj,12,2021-11-29T14:08:55.133Z,gomot_a.0074.eq.wav,0,4,521.79790965,-0.43053190,True,287
102,11,3,lkj,12,2021-11-29T14:08:55.133Z,gomot_a.0074.eq.wav,0,5,704.34790983,-1.91086121,True,287
102,11,3,lkj,12,2021-11-29T14:08:55.133Z,gomot_a.0074.eq.wav,0,6,914.17288101,-2.80966703,True,287
102,11,3,lkj,12,2021-11-29T14:08:55.133Z,gomot_a.0074.eq.wav,0,7,1155.34800284,-1.85405237,True,287
102,11,3,lkj,12,2021-11-29T14:08:55.133Z,gomot_a.0074.eq.wav,0,8,1432.55733147,-2.89325857,True,287
102,11,3,lkj,12,2021-11-29T14:08:55.133Z,gomot_a.0074.eq.wav,0,9,1751.18477235,2.86084376,True,287
102,11,3,lkj,12,2021-11-29T14:08:55.133Z,gomot_a.0074.eq.wav,0,10,2117.41864548,-0.20590252,True,287
102,11,3,lkj,12,2021-11-29T14:08:55.133Z,gomot_a.0074.eq.wav,0,11,2538.37187364,-2.87611050,True,287
102,11,3,lkj,12,2021-11-29T14:08:55.133Z,gomot_a.0074.eq.wav,0,12,3022.22012828,-3.39023531,True,287
102,11,3,lkj,12,2021-11-29T14:08:55.133Z,gomot_a.0074.eq.wav,0,13,3578.36061576,1.21139741,True,287
102,11,3,lkj,12,2021-11-29T14:08:55.133Z,gomot_a.0074.eq.wav,0,14,4217.59458808,-3.17707285,True,287
102,11,3,lkj,12,2021-11-29T14:08:55.133Z,gomot_a.0074.eq.wav,0,15,4952.33712269,4.38540271,True,287
102,11,3,lkj,12,2021-11-29T14:08:55.133Z,gomot_a.0074.eq.wav,0,16,5796.85824570,-0.90053135,True,287
102,11,3,lkj,12,2021-11-29T14:08:55.133Z,gomot_a.0074.eq.wav,0,17,6767.56008152,2.17854294,True,287
102,11,3,lkj,12,2021-11-29T14:08:55.133Z,gomot_a.0074.eq.wav,0,18,7883.29541175,1.56353546,True,287
102,11,3,lkj,12,2021-11-29T14:08:55.133Z,gomot_a.0074.eq.wav,0,19,9165.73383021,0.07517963,True,287
102,11,3,lkj,12,2021-11-29T14:08:55.133Z,gomot_a.0074.eq.wav,0,20,10639.78260555,1.73708192,True,287
102,11,3,lkj,12,2021-11-29T14:08:55.133Z,gomot_a.0074.eq.wav,0,21,12334.07042541,-3.76163374,True,287
102,11,3,lkj,12,2021-11-29T14:08:55.133Z,gomot_a.0074.eq.wav,0,22,14281.50341712,-3.72887766,True,287
102,11,3,lkj,12,2021-11-29T14:08:55.133Z,gomot_a.0074.eq.wav,0,23,16519.90424416,0.84757217,True,287
102,11,3,lkj,12,2021-11-29T14:08:55.133Z,gomot_a.0074.eq.wav,0,24,19092.74669051,1.95081121,True,287
102,11,3,lkj,12,2021-11-29T14:08:55.133Z,gomot_a.0074.eq.wav,0,25,22050.00000000,4.80007404,True,287
102,11,3,lkj,12,2021-11-29T14:08:55.133Z,gomot_a.0083.eq.wav,1,0,0.00000000,-1.57463678,False,287
102,11,3,lkj,12,2021-11-29T14:08:55.133Z,gomot_a.0083.eq.wav,1,1,104.58767290,0.35415503,False,287
102,11,3,lkj,12,2021-11-29T14:08:55.133Z,gomot_a.0083.eq.wav,1,2,224.80189054,-4.87774726,False,287
102,11,3,lkj,12,2021-11-29T14:08:55.133Z,gomot_a.0083.eq.wav,1,3,362.97743001,1.16658728,False,287
102,11,3,lkj,12,2021-11-29T14:08:55.133Z,gomot_a.0083.eq.wav,1,4,521.79790965,1.86330852,False,287
102,11,3,lkj,12,2021-11-29T14:08:55.133Z,gomot_a.0083.eq.wav,1,5,704.34790983,3.89530619,False,287
102,11,3,lkj,12,2021-11-29T14:08:55.133Z,gomot_a.0083.eq.wav,1,6,914.17288101,-4.58596069,False,287
102,11,3,lkj,12,2021-11-29T14:08:55.133Z,gomot_a.0083.eq.wav,1,7,1155.34800284,-1.30019220,False,287
102,11,3,lkj,12,2021-11-29T14:08:55.133Z,gomot_a.0083.eq.wav,1,8,1432.55733147,4.19563655,False,287
102,11,3,lkj,12,2021-11-29T14:08:55.133Z,gomot_a.0083.eq.wav,1,9,1751.18477235,-1.58310070,False,287
102,11,3,lkj,12,2021-11-29T14:08:55.133Z,gomot_a.0083.eq.wav,1,10,2117.41864548,-4.86618553,False,287
102,11,3,lkj,12,2021-11-29T14:08:55.133Z,gomot_a.0083.eq.wav,1,11,2538.37187364,-0.30063484,False,287
102,11,3,lkj,12,2021-11-29T14:08:55.133Z,gomot_a.0083.eq.wav,1,12,3022.22012828,0.45428118,False,287
102,11,3,lkj,12,2021-11-29T14:08:55.133Z,gomot_a.0083.eq.wav,1,13,3578.36061576,-0.25281106,False,287
102,11,3,lkj,12,2021-11-29T14:08:55.133Z,gomot_a.0083.eq.wav,1,14,4217.59458808,2.88931580,False,287
102,11,3,lkj,12,2021-11-29T14:08:55.133Z,gomot_a.0083.eq.wav,1,15,4952.33712269,-3.80315762,False,287
102,11,3,lkj,12,2021-11-29T14:08:55.133Z,gomot_a.0083.eq.wav,1,16,5796.85824570,3.97665789,False,287
102,11,3,lkj,12,2021-11-29T14:08:55.133Z,gomot_a.0083.eq.wav,1,17,6767.56008152,4.81232803,False,287
102,11,3,lkj,12,2021-11-29T14:08:55.133Z,gomot_a.0083.eq.wav,1,18,7883.29541175,-2.38673057,False,287
102,11,3,lkj,12,2021-11-29T14:08:55.133Z,gomot_a.0083.eq.wav,1,19,9165.73383021,2.09366960,False,287
102,11,3,lkj,12,2021-11-29T14:08:55.133Z,gomot_a.0083.eq.wav,1,20,10639.78260555,4.05530591,False,287
102,11,3,lkj,12,2021-11-29T14:08:55.133Z,gomot_a.0083.eq.wav,1,21,12334.07042541,-2.67933947,False,287
102,11,3,lkj,12,2021-11-29T14:08:55.133Z,gomot_a.0083.eq.wav,1,22,14281.50341712,3.17218485,False,287
102,11,3,lkj,12,2021-11-29T14:08:55.133Z,gomot_a.0083.eq.wav,1,23,16519.90424416,2.77870773,False,287
102,11,3,lkj,12,2021-11-29T14:08:55.133Z,gomot_a.0083.eq.wav,1,24,19092.74669051,-2.03513287,False,287
102,11,3,lkj,12,2021-11-29T14:08:55.133Z,gomot_a.0083.eq.wav,1,25,22050.00000000,-3.67240514,False,287
102,12,4,lkj,12,2021-11-29T14:08:55.133Z,gomot_a.0081.eq.wav,0,0,0.00000000,-0.99458023,False,265
102,12,4,lkj,12,2021-11-29T14:08:55.133Z,gomot_a.0081.eq.wav,0,1,104.58767290,0.75324475,False,265
102,12,4,lkj,12,2021-11-29T14:08:55.133Z,gomot_a.0081.eq.wav,0,2,224.80189054,2.88072771,False,265
102,12,4,lkj,12,2021-11-29T14:08:55.133Z,gomot_a.0081.eq.wav,0,3,362.97743001,0.46570032,False,265
102,12,4,lkj,12,2021-11-29T14:08:55.133Z,gomot_a.0081.eq.wav,0,4,521.79790965,-3.36700207,False,265
102,12,4,lkj,12,2021-11-29T14:08:55.133Z,gomot_a.0081.eq.wav,0,5,704.34790983,2.38748672,False,265
102,12,4,lkj,12,2021-11-29T14:08:55.133Z,gomot_a.0081.eq.wav,0,6,914.17288101,2.28565256,False,265
102,12,4,lkj,12,2021-11-29T14:08:55.133Z,gomot_a.0081.eq.wav,0,7,1155.34800284,4.78773113,False,265
102,12,4,lkj,12,2021-11-29T14:08:55.133Z,gomot_a.0081.eq.wav,0,8,1432.55733147,1.34258771,False,265
102,12,4,lkj,12,2021-11-29T14:08:55.133Z,gomot_a.0081.eq.wav,0,9,1751.18477235,2.64151180,False,265
102,12,4,lkj,12,2021-11-29T14:08:55.133Z,gomot_a.0081.eq.wav,0,10,2117.41864548,1.83841048,False,265
102,12,4,lkj,12,2021-11-29T14:08:55.133Z,gomot_a.0081.eq.wav,0,11,2538.37187364,-4.23271001,False,265
102,12,4,lkj,12,2021-11-29T14:08:55.133Z,gomot_a.0081.eq.wav,0,12,3022.22012828,2.08909233,False,265
102,12,4,lkj,12,2021-11-29T14:08:55.133Z,gomot_a.0081.eq.wav,0,13,3578.36061576,-1.48775199,False,265
102,12,4,lkj,12,2021-11-29T14:08:55.133Z,gomot_a.0081.eq.wav,0,14,4217.59458808,-2.29500114,False,265
102,12,4,lkj,12,2021-11-29T14:08:55.133Z,gomot_a.0081.eq.wav,0,15,4952.33712269,-0.95622052,False,265
102,12,4,lkj,12,2021-11-29T14:08:55.133Z,gomot_a.0081.eq.wav,0,16,5796.85824570,1.33719563,False,265
102,12,4,lkj,12,2021-11-29T14:08:55.133Z,gomot_a.0081.eq.wav,0,17,6767.56008152,-2.95177878,False,265
102,12,4,lkj,12,2021-11-29T14:08:55.133Z,gomot_a.0081.eq.wav,0,18,7883.29541175,3.82320183,False,265
102,12,4,lkj,12,2021-11-29T14:08:55.133Z,gomot_a.0081.eq.wav,0,19,9165.73383021,1.54672690,False,265
102,12,4,lkj,12,2021-11-29T14:08:55.133Z,gomot_a.0081.eq.wav,0,20,10639.78260555,1.05770973,False,265
102,12,4,lkj,12,2021-11-29T14:08:55.133Z,gomot_a.0081.eq.wav,0,21,12334.07042541,0.22488734,False,265
102,12,4,lkj,12,2021-11-29T14:08:55.133Z,gomot_a.0081.eq.wav,0,22,14281.50341712,-0.46841050,False,265
102,12,4,lkj,12,2021-11-29T14:08:55.133Z,gomot_a.0081.eq.wav,0,23,16519.90424416,4.81206461,False,265
102,12,4,lkj,12,2021-11-29T14:08:55.133Z,gomot_a.0081.eq.wav,0,24,19092.74669051,-2.70528365,False,265
102,12,4,lkj,12,2021-11-29T14:08:55.133Z,gomot_a.0081.eq.wav,0,25,22050.00000000,-4.96437929,False,265
102,12,4,lkj,12,2021-11-29T14:08:55.133Z,gomot_a.0017.eq.wav,1,0,0.00000000,2.60068134,True,265
102,12,4,lkj,12,2021-11-29T14:08:55.133Z,gomot_a.0017.eq.wav,1,1,104.58767290,-1.52342266,True,265
102,12,4,lkj,12,2021-11-29T14:08:55.133Z,gomot_a.0017.eq.wav,1,2,224.80189054,-1.44845784,True,265
102,12,4,lkj,12,2021-11-29T14:08:55.133Z,gomot_a.0017.eq.wav,1,3,362.97743001,2.17702604,True,265
102,12,4,lkj,12,2021-11-29T14:08:55.133Z,gomot_a.0017.eq.wav,1,4,521.79790965,4.84209909,True,265
102,12,4,lkj,12,2021-11-29T14:08:55.133Z,gomot_a.0017.eq.wav,1,5,704.34790983,-0.47096828,True,265
102,12,4,lkj,12,2021-11-29T14:08:55.133Z,gomot_a.0017.eq.wav,1,6,914.17288101,1.87075025,True,265
102,12,4,lkj,12,2021-11-29T14:08:55.133Z,gomot_a.0017.eq.wav,1,7,1155.34800284,4.45728640,True,265
102,12,4,lkj,12,2021-11-29T14:08:55.133Z,gomot_a.0017.eq.wav,1,8,1432.55733147,-0.16603527,True,265
102,12,4,lkj,12,2021-11-29T14:08:55.133Z,gomot_a.0017.eq.wav,1,9,1751.18477235,4.50484461,True,265
102,12,4,lkj,12,2021-11-29T14:08:55.133Z,gomot_a.0017.eq.wav,1,10,2117.41864548,-3.62984249,True,265
102,12,4,lkj,12,2021-11-29T14:08:55.133Z,gomot_a.0017.eq.wav,1,11,2538.37187364,-1.08659768,True,265
102,12,4,lkj,12,2021-11-29T14:08:55.133Z,gomot_a.0017.eq.wav,1,12,3022.22012828,0.53980322,True,265
102,12,4,lkj,12,2021-11-29T14:08:55.133Z,gomot_a.0017.eq.wav,1,13,3578.36061576,-1.47702474,True,265
102,12,4,lkj,12,2021-11-29T14:08:55.133Z,gomot_a.0017.eq.wav,1,14,4217.59458808,2.88622871,True,265
102,12,4,lkj,12,2021-11-29T14:08:55.133Z,gomot_a.0017.eq.wav,1,15,4952.33712269,2.85542579,True,265
102,12,4,lkj,12,2021-11-29T14:08:55.133Z,gomot_a.0017.eq.wav,1,16,5796.85824570,-1.61548559,True,265
102,12,4,lkj,12,2021-11-29T14:08:55.133Z,gomot_a.0017.eq.wav,1,17,6767.56008152,0.24798557,True,265
102,12,4,lkj,12,2021-11-29T14:08:55.133Z,gomot_a.0017.eq.wav,1,18,7883.29541175,0.38486498,True,265
102,12,4,lkj,12,2021-11-29T14:08:55.133Z,gomot_a.0017.eq.wav,1,19,9165.73383021,0.99860440,True,265
102,12,4,lkj,12,2021-11-29T14:08:55.133Z,gomot_a.0017.eq.wav,1,20,10639.78260555,4.42891190,True,265
102,12,4,lkj,12,2021-11-29T14:08:55.133Z,gomot_a.0017.eq.wav,1,21,12334.07042541,-4.29037351,True,265
102,12,4,lkj,12,2021-11-29T14:08:55.133Z,gomot_a.0017.eq.wav,1,22,14281.50341712,-3.64614129,True,265
102,12,4,lkj,12,2021-11-29T14:08:55.133Z,gomot_a.0017.eq.wav,1,23,16519.90424416,3.04969004,True,265
102,12,4,lkj,12,2021-11-29T14:08:55.133Z,gomot_a.0017.eq.wav,1,24,19092.74669051,3.04791655,True,265
102,12,4,lkj,12,2021-11-29T14:08:55.133Z,gomot_a.0017.eq.wav,1,25,22050.00000000,1.22596015,True,265
102,13,4,lkj,12,2021-11-29T14:08:55.133Z,gomot_a.0097.eq.wav,0,0,0.00000000,3.82571201,False,278
102,13,4,lkj,12,2021-11-29T14:08:55.133Z,gomot_a.0097.eq.wav,0,1,104.58767290,2.03855717,False,278
102,13,4,lkj,12,2021-11-29T14:08:55.133Z,gomot_a.0097.eq.wav,0,2,224.80189054,2.71758273,False,278
102,13,4,lkj,12,2021-11-29T14:08:55.133Z,gomot_a.0097.eq.wav,0,3,362.97743001,-1.22646751,False,278
102,13,4,lkj,12,2021-11-29T14:08:55.133Z,gomot_a.0097.eq.wav,0,4,521.79790965,-1.75478669,False,278
102,13,4,lkj,12,2021-11-29T14:08:55.133Z,gomot_a.0097.eq.wav,0,5,704.34790983,-0.36424657,False,278
102,13,4,lkj,12,2021-11-29T14:08:55.133Z,gomot_a.0097.eq.wav,0,6,914.17288101,-2.01085751,False,278
102,13,4,lkj,12,2021-11-29T14:08:55.133Z,gomot_a.0097.eq.wav,0,7,1155.34800284,4.39120304,False,278
102,13,4,lkj,12,2021-11-29T14:08:55.133Z,gomot_a.0097.eq.wav,0,8,1432.55733147,2.93261589,False,278
102,13,4,lkj,12,2021-11-29T14:08:55.133Z,gomot_a.0097.eq.wav,0,9,1751.18477235,0.91575360,False,278
102,13,4,lkj,12,2021-11-29T14:08:55.133Z,gomot_a.0097.eq.wav,0,10,2117.41864548,0.76758233,False,278
102,13,4,lkj,12,2021-11-29T14:08:55.133Z,gomot_a.0097.eq.wav,0,11,2538.37187364,2.16359762,False,278
102,13,4,lkj,12,2021-11-29T14:08:55.133Z,gomot_a.0097.eq.wav,0,12,3022.22012828,1.32258037,False,278
102,13,4,lkj,12,2021-11-29T14:08:55.133Z,gomot_a.0097.eq.wav,0,13,3578.36061576,4.24234173,False,278
102,13,4,lkj,12,2021-11-29T14:08:55.133Z,gomot_a.0097.eq.wav,0,14,4217.59458808,-0.38888688,False,278
102,13,4,lkj,12,2021-11-29T14:08:55.133Z,gomot_a.0097.eq.wav,0,15,4952.33712269,-1.59968368,False,278
102,13,4,lkj,12,2021-11-29T14:08:55.133Z,gomot_a.0097.eq.wav,0,16,5796.85824570,-1.11987899,False,278
102,13,4,lkj,12,2021-11-29T14:08:55.133Z,gomot_a.0097.eq.wav,0,17,6767.56008152,1.64581793,False,278
102,13,4,lkj,12,2021-11-29T14:08:55.133Z,gomot_a.0097.eq.wav,0,18,7883.29541175,0.26769753,False,278
102,13,4,lkj,12,2021-11-29T14:08:55.133Z,gomot_a.0097.eq.wav,0,19,9165.73383021,-0.28068354,False,278
102,13,4,lkj,12,2021-11-29T14:08:55.133Z,gomot_a.0097.eq.wav,0,20,10639.78260555,-4.97766195,False,278
102,13,4,lkj,12,2021-11-29T14:08:55.133Z,gomot_a.0097.eq.wav,0,21,12334.07042541,-4.06587203,False,278
102,13,4,lkj,12,2021-11-29T14:08:55.133Z,gomot_a.0097.eq.wav,0,22,14281.50341712,-3.96846764,False,278
102,13,4,lkj,12,2021-11-29T14:08:55.133Z,gomot_a.0097.eq.wav,0,23,16519.90424416,1.47691110,False,278
102,13,4,lkj,12,2021-11-29T14:08:55.133Z,gomot_a.0097.eq.wav,0,24,19092.74669051,-2.96309110,False,278
102,13,4,lkj,12,2021-11-29T14:08:55.133Z,gomot_a.0097.eq.wav,0,25,22050.00000000,2.57684535,False,278
102,13,4,lkj,12,2021-11-29T14:08:55.133Z,gomot_a.0100.eq.wav,1,0,0.00000000,-2.12759102,True,278
102,13,4,lkj,12,2021-11-29T14:08:55.133Z,gomot_a.0100.eq.wav,1,1,104.58767290,-1.27954718,True,278
102,13,4,lkj,12,2021-11-29T14:08:55.133Z,gomot_a.0100.eq.wav,1,2,224.80189054,-3.42366284,True,278
102,13,4,lkj,12,2021-11-29T14:08:55.133Z,gomot_a.0100.eq.wav,1,3,362.97743001,-0.98131701,True,278
102,13,4,lkj,12,2021-11-29T14:08:55.133Z,gomot_a.0100.eq.wav,1,4,521.79790965,3.90226108,True,278
102,13,4,lkj,12,2021-11-29T14:08:55.133Z,gomot_a.0100.eq.wav,1,5,704.34790983,-3.32970139,True,278
102,13,4,lkj,12,2021-11-29T14:08:55.133Z,gomot_a.0100.eq.wav,1,6,914.17288101,-2.95548821,True,278
102,13,4,lkj,12,2021-11-29T14:08:55.133Z,gomot_a.0100.eq.wav,1,7,1155.34800284,4.44751039,True,278
102,13,4,lkj,12,2021-11-29T14:08:55.133Z,gomot_a.0100.eq.wav,1,8,1432.55733147,-1.41670528,True,278
102,13,4,lkj,12,2021-11-29T14:08:55.133Z,gomot_a.0100.eq.wav,1,9,1751.18477235,1.33686350,True,278
102,13,4,lkj,12,2021-11-29T14:08:55.133Z,gomot_a.0100.eq.wav,1,10,2117.41864548,-0.03346154,True,278
102,13,4,lkj,12,2021-11-29T14:08:55.133Z,gomot_a.0100.eq.wav,1,11,2538.37187364,1.89092120,True,278
102,13,4,lkj,12,2021-11-29T14:08:55.133Z,gomot_a.0100.eq.wav,1,12,3022.22012828,-4.54929763,True,278
102,13,4,lkj,12,2021-11-29T14:08:55.133Z,gomot_a.0100.eq.wav,1,13,3578.36061576,1.94810683,True,278
102,13,4,lkj,12,2021-11-29T14:08:55.133Z,gomot_a.0100.eq.wav,1,14,4217.59458808,-3.24348076,True,278
102,13,4,lkj,12,2021-11-29T14:08:55.133Z,gomot_a.0100.eq.wav,1,15,4952.33712269,-1.40339421,True,278
102,13,4,lkj,12,2021-11-29T14:08:55.133Z,gomot_a.0100.eq.wav,1,16,5796.85824570,2.44223735,True,278
102,13,4,lkj,12,2021-11-29T14:08:55.133Z,gomot_a.0100.eq.wav,1,17,6767.56008152,-4.27582312,True,278
102,13,4,lkj,12,2021-11-29T14:08:55.133Z,gomot_a.0100.eq.wav,1,18,7883.29541175,-0.18127751,True,278
102,13,4,lkj,12,2021-11-29T14:08:55.133Z,gomot_a.0100.eq.wav,1,19,9165.73383021,0.20934718,True,278
102,13,4,lkj,12,2021-11-29T14:08:55.133Z,gomot_a.0100.eq.wav,1,20,10639.78260555,2.32778558,True,278
102,13,4,lkj,12,2021-11-29T14:08:55.133Z,gomot_a.0100.eq.wav,1,21,12334.07042541,1.45165778,True,278
102,13,4,lkj,12,2021-11-29T14:08:55.133Z,gomot_a.0100.eq.wav,1,22,14281.50341712,-2.57214690,True,278
102,13,4,lkj,12,2021-11-29T14:08:55.133Z,gomot_a.0100.eq.wav,1,23,16519.90424416,2.74939032,True,278
102,13,4,lkj,12,2021-11-29T14:08:55.133Z,gomot_a.0100.eq.wav,1,24,19092.74669051,1.26883564,True,278
102,13,4,lkj,12,2021-11-29T14:08:55.133Z,gomot_a.0100.eq.wav,1,25,22050.00000000,0.36726468,True,278
102,14,4,lkj,12,2021-11-29T14:08:55.133Z,gomot_a.0084.eq.wav,0,0,0.00000000,-1.72133294,False,167
102,14,4,lkj,12,2021-11-29T14:08:55.133Z,gomot_a.0084.eq.wav,0,1,104.58767290,-1.40285193,False,167
102,14,4,lkj,12,2021-11-29T14:08:55.133Z,gomot_a.0084.eq.wav,0,2,224.80189054,-1.55117755,False,167
102,14,4,lkj,12,2021-11-29T14:08:55.133Z,gomot_a.0084.eq.wav,0,3,362.97743001,-1.08204490,False,167
102,14,4,lkj,12,2021-11-29T14:08:55.133Z,gomot_a.0084.eq.wav,0,4,521.79790965,-1.35549347,False,167
102,14,4,lkj,12,2021-11-29T14:08:55.133Z,gomot_a.0084.eq.wav,0,5,704.34790983,-2.94134550,False,167
102,14,4,lkj,12,2021-11-29T14:08:55.133Z,gomot_a.0084.eq.wav,0,6,914.17288101,-2.00643917,False,167
102,14,4,lkj,12,2021-11-29T14:08:55.133Z,gomot_a.0084.eq.wav,0,7,1155.34800284,-3.41002267,False,167
102,14,4,lkj,12,2021-11-29T14:08:55.133Z,gomot_a.0084.eq.wav,0,8,1432.55733147,-1.84449622,False,167
102,14,4,lkj,12,2021-11-29T14:08:55.133Z,gomot_a.0084.eq.wav,0,9,1751.18477235,1.45864564,False,167
102,14,4,lkj,12,2021-11-29T14:08:55.133Z,gomot_a.0084.eq.wav,0,10,2117.41864548,-0.23232524,False,167
102,14,4,lkj,12,2021-11-29T14:08:55.133Z,gomot_a.0084.eq.wav,0,11,2538.37187364,0.99936002,False,167
102,14,4,lkj,12,2021-11-29T14:08:55.133Z,gomot_a.0084.eq.wav,0,12,3022.22012828,-0.77432403,False,167
102,14,4,lkj,12,2021-11-29T14:08:55.133Z,gomot_a.0084.eq.wav,0,13,3578.36061576,-4.58036729,False,167
102,14,4,lkj,12,2021-11-29T14:08:55.133Z,gomot_a.0084.eq.wav,0,14,4217.59458808,4.89506565,False,167
102,14,4,lkj,12,2021-11-29T14:08:55.133Z,gomot_a.0084.eq.wav,0,15,4952.33712269,-4.11955317,False,167
102,14,4,lkj,12,2021-11-29T14:08:55.133Z,gomot_a.0084.eq.wav,0,16,5796.85824570,-0.17322789,False,167
102,14,4,lkj,12,2021-11-29T14:08:55.133Z,gomot_a.0084.eq.wav,0,17,6767.56008152,4.95430665,False,167
102,14,4,lkj,12,2021-11-29T14:08:55.133Z,gomot_a.0084.eq.wav,0,18,7883.29541175,0.14780172,False,167
102,14,4,lkj,12,2021-11-29T14:08:55.133Z,gomot_a.0084.eq.wav,0,19,9165.73383021,0.44620922,False,167
102,14,4,lkj,12,2021-11-29T14:08:55.133Z,gomot_a.0084.eq.wav,0,20,10639.78260555,-1.86623116,False,167
102,14,4,lkj,12,2021-11-29T14:08:55.133Z,gomot_a.0084.eq.wav,0,21,12334.07042541,3.13899458,False,167
102,14,4,lkj,12,2021-11-29T14:08:55.133Z,gomot_a.0084.eq.wav,0,22,14281.50341712,-1.78049362,False,167
102,14,4,lkj,12,2021-11-29T14:08:55.133Z,gomot_a.0084.eq.wav,0,23,16519.90424416,1.15265190,False,167
102,14,4,lkj,12,2021-11-29T14:08:55.133Z,gomot_a.0084.eq.wav,0,24,19092.74669051,-1.08903292,False,167
102,14,4,lkj,12,2021-11-29T14:08:55.133Z,gomot_a.0084.eq.wav,0,25,22050.00000000,-1.22487814,False,167
102,14,4,lkj,12,2021-11-29T14:08:55.133Z,gomot_a.0006.eq.wav,1,0,0.00000000,2.18802854,True,167
102,14,4,lkj,12,2021-11-29T14:08:55.133Z,gomot_a.0006.eq.wav,1,1,104.58767290,-1.67709235,True,167
102,14,4,lkj,12,2021-11-29T14:08:55.133Z,gomot_a.0006.eq.wav,1,2,224.80189054,4.16958649,True,167
102,14,4,lkj,12,2021-11-29T14:08:55.133Z,gomot_a.0006.eq.wav,1,3,362.97743001,0.59764997,True,167
102,14,4,lkj,12,2021-11-29T14:08:55.133Z,gomot_a.0006.eq.wav,1,4,521.79790965,-2.29575672,True,167
102,14,4,lkj,12,2021-11-29T14:08:55.133Z,gomot_a.0006.eq.wav,1,5,704.34790983,0.84448836,True,167
102,14,4,lkj,12,2021-11-29T14:08:55.133Z,gomot_a.0006.eq.wav,1,6,914.17288101,-1.94688929,True,167
102,14,4,lkj,12,2021-11-29T14:08:55.133Z,gomot_a.0006.eq.wav,1,7,1155.34800284,4.51950343,True,167
102,14,4,lkj,12,2021-11-29T14:08:55.133Z,gomot_a.0006.eq.wav,1,8,1432.55733147,1.55035723,True,167
102,14,4,lkj,12,2021-11-29T14:08:55.133Z,gomot_a.0006.eq.wav,1,9,1751.18477235,-0.14553431,True,167
102,14,4,lkj,12,2021-11-29T14:08:55.133Z,gomot_a.0006.eq.wav,1,10,2117.41864548,-4.24239310,True,167
102,14,4,lkj,12,2021-11-29T14:08:55.133Z,gomot_a.0006.eq.wav,1,11,2538.37187364,4.97765308,True,167
102,14,4,lkj,12,2021-11-29T14:08:55.133Z,gomot_a.0006.eq.wav,1,12,3022.22012828,-1.19314817,True,167
102,14,4,lkj,12,2021-11-29T14:08:55.133Z,gomot_a.0006.eq.wav,1,13,3578.36061576,3.67171001,True,167
102,14,4,lkj,12,2021-11-29T14:08:55.133Z,gomot_a.0006.eq.wav,1,14,4217.59458808,4.37378991,True,167
102,14,4,lkj,12,2021-11-29T14:08:55.133Z,gomot_a.0006.eq.wav,1,15,4952.33712269,3.69494962,True,167
102,14,4,lkj,12,2021-11-29T14:08:55.133Z,gomot_a.0006.eq.wav,1,16,5796.85824570,-0.72216111,True,167
102,14,4,lkj,12,2021-11-29T14:08:55.133Z,gomot_a.0006.eq.wav,1,17,6767.56008152,1.67600592,True,167
102,14,4,lkj,12,2021-11-29T14:08:55.133Z,gomot_a.0006.eq.wav,1,18,7883.29541175,0.36951970,True,167
102,14,4,lkj,12,2021-11-29T14:08:55.133Z,gomot_a.0006.eq.wav,1,19,9165.73383021,1.72893349,True,167
102,14,4,lkj,12,2021-11-29T14:08:55.133Z,gomot_a.0006.eq.wav,1,20,10639.78260555,1.48020561,True,167
102,14,4,lkj,12,2021-11-29T14:08:55.133Z,gomot_a.0006.eq.wav,1,21,12334.07042541,1.65264338,True,167
102,14,4,lkj,12,2021-11-29T14:08:55.133Z,gomot_a.0006.eq.wav,1,22,14281.50341712,-0.27555756,True,167
102,14,4,lkj,12,2021-11-29T14:08:55.133Z,gomot_a.0006.eq.wav,1,23,16519.90424416,2.39379711,True,167
102,14,4,lkj,12,2021-11-29T14:08:55.133Z,gomot_a.0006.eq.wav,1,24,19092.74669051,-2.03838954,True,167
102,14,4,lkj,12,2021-11-29T14:08:55.133Z,gomot_a.0006.eq.wav,1,25,22050.00000000,-0.18196096,True,167
